nr,fusedX,fusedY,fusedZ,gyroX,gyroY,gyroZ,accX,accY,accZ,q,w,e,r,t,z,u,i,o,p,a,s,d,f,g,h,j,k,l,y
0,2.6595368,-0.92680573,0.18278305,-0.37519386,-0.15490809,-0.049538523,0.18031332,-0.07751228,0.07571663,0,0,0,0,0,0,0,0,0,0,0,0,0,0,0,0,0,0,0,0,0
1,2.6587663,-0.91643715,0.17723785,-0.35708436,-0.084600635,0.0047899615,0.121655375,0.034865562,-0.044891283,0,0,0,0,0,0,0,0,0,0,0,0,0,0,0,0,0,0,0,0,0
2,2.6582122,-0.9038005,0.17190172,-0.46148026,-0.20923658,-0.027167972,-0.18959084,0.028880058,0.047285482,0,0,0,0,0,0,0,0,0,0,0,0,0,0,0,0,0,0,0,0,0
3,2.6566186,-0.89198667,0.15673009,-0.32406116,-0.46170425,0.012246813,0.19048867,0.006584055,0.34611177,0,0,0,0,0,0,0,0,0,0,0,0,0,0,0,0,0,0,0,0,0
4,2.6578388,-0.88261867,0.14505434,-0.2654716,-0.2710219,-0.070843816,0.4691139,0.101454295,0.22131401,0,0,0,0,0,0,0,0,0,0,0,0,0,0,0,0,0,0,0,0,0
5,2.6616352,-0.8770994,0.13771275,-0.14722727,-0.23373766,-0.05806064,0.42302552,0.35149872,0.24286184,0,0,0,0,0,0,0,0,0,0,0,0,0,0,0,0,0,0,0,0,0
6,2.667307,-0.87349313,0.12782043,-0.11420407,-0.331742,-0.10812807,0.75941086,0.1743278,0.13153146,0,0,0,0,0,0,0,0,0,0,0,0,0,0,0,0,0,0,0,0,0
7,2.6789334,-0.8705285,0.12025613,-0.031113444,-0.58101386,-0.28922302,0.18869302,0.08080431,0.29747957,0,0,0,0,0,0,0,0,0,0,0,0,0,0,0,0,0,0,0,0,0
8,2.687478,-0.8644359,0.09818458,-0.3613454,-0.7503909,0.05485739,1.115698,0.8454525,0.18749592,0,0,0,0,0,0,0,0,0,0,0,0,0,0,0,0,0,0,0,0,0
9,2.6959283,-0.85351616,0.07676778,-0.311278,-0.645995,-0.2572651,1.4449008,0.48033673,0.51789576,0,0,0,0,0,0,0,0,0,0,0,0,0,0,0,0,0,0,0,0,0
10,2.7122788,-0.845346,0.06581866,-0.10674722,-0.6001886,-0.36379153,0.8771756,0.23418285,0.7188591,0,0,0,0,0,0,0,0,0,0,0,0,0,0,0,0,0,0,0,0,0
11,2.7337303,-0.84916985,0.06261738,0.29379222,-0.48514006,-0.5459517,0.8795698,-0.0525228,-0.26111764,0,0,0,0,0,0,0,0,0,0,0,0,0,0,0,0,0,0,0,0,0
12,2.7566295,-0.85756487,0.079161994,0.15956889,-0.113362774,-0.60241073,-0.3824737,-0.18195933,-1.079785,0,0,0,0,0,0,0,0,0,0,0,0,0,0,0,0,0,0,0,0,0
13,2.7741585,-0.85581815,0.10006046,-0.12379145,-0.15490809,-0.41066316,-1.8177977,-0.5303157,-0.61770403,0,0,0,0,0,0,0,0,0,0,0,0,0,0,0,0,0,0,0,0,0
14,2.7833602,-0.84718484,0.104982704,-0.31873485,-0.18047443,-0.24341665,-0.54767364,-0.22580315,-0.16130935,0,0,0,0,0,0,0,0,0,0,0,0,0,0,0,0,0,0,0,0,0
15,2.7924964,-0.8371965,0.1056292,-0.23883441,-0.30935466,-0.32331946,-0.19288288,-0.08364742,0.20904374,0,0,0,0,0,0,0,0,0,0,0,0,0,0,0,0,0,0,0,0,0
16,2.8053172,-0.8305906,0.104686506,-0.099284776,-0.48512328,-0.39682272,-0.11791443,-0.12300211,0.25887305,0,0,0,0,0,0,0,0,0,0,0,0,0,0,0,0,0,0,0,0,0
17,2.819638,-0.82914865,0.10437354,0.10737652,-0.57034445,-0.3467553,-1.0253168,-0.58388597,-0.02124854,0,0,0,0,0,0,0,0,0,0,0,0,0,0,0,0,0,0,0,0,0
18,2.824629,-0.82932705,0.099880636,-0.09076266,-0.3200073,-0.076178126,-0.78080904,-0.52866966,-0.68010294,0,0,0,0,0,0,0,0,0,0,0,0,0,0,0,0,0,0,0,0,0
19,2.8236728,-0.8222358,0.10102822,-0.24948706,0.22327755,-0.05806863,-0.14619595,-0.10310031,0.07796119,0,0,0,0,0,0,0,0,0,0,0,0,0,0,0,0,0,0,0,0,0
20,2.8292823,-0.81706727,0.11837178,0.02002484,0.33086926,-0.24342464,-0.6783073,-0.7009025,0.41449618,0,0,0,0,0,0,0,0,0,0,0,0,0,0,0,0,0,0,0,0,0
21,2.8358476,-0.8140879,0.13337511,-0.18450592,0.1348606,-0.17098665,-0.49754503,0.17298107,0.55695117,0,0,0,0,0,0,0,0,0,0,0,0,0,0,0,0,0,0,0,0,0
22,2.8386571,-0.80723894,0.13779753,0.05837436,-0.021733258,-0.037828606,-0.90066874,-0.73950905,1.0580875,0,0,0,0,0,0,0,0,0,0,0,0,0,0,0,0,0,0,0,0,0
23,2.8387403,-0.81710786,0.14000899,0.4109769,-0.09097545,-0.012262259,-0.5705682,0.031124622,-0.0073322426,0,0,0,0,0,0,0,0,0,0,0,0,0,0,0,0,0,0,0,0,0
24,2.8373938,-0.82656187,0.1414777,0.15850921,-0.0068195565,0.0015861788,-0.30556,-0.021547815,-0.51220953,0,0,0,0,0,0,0,0,0,0,0,0,0,0,0,0,0,0,0,0,0
25,2.8311844,-0.8285003,0.14040214,-0.05454367,0.096511096,0.15498425,8.9782564E-4,0.01436521,-0.5924153,0,0,0,0,0,0,0,0,0,0,0,0,0,0,0,0,0,0,0,0,0
26,2.8223863,-0.82624984,0.13721333,-0.21113753,0.06774896,0.07828522,0.41434655,0.2873042,-0.571466,0,0,0,0,0,0,0,0,0,0,0,0,0,0,0,0,0,0,0,0,0
27,2.8154676,-0.81872046,0.13468589,-0.49449787,0.17853646,0.0548494,0.45175594,0.4357447,-2.2285528,0,0,0,0,0,0,0,0,0,0,0,0,0,0,0,0,0,0,0,0,0
28,2.7986917,-0.7960427,0.1444583,-0.652157,0.7878677,0.33501396,0.13796587,-0.26994625,0.06823475,0,0,0,0,0,0,0,0,0,0,0,0,0,0,0,0,0,0,0,0,0
29,2.7839687,-0.78312844,0.15164007,-0.31872925,0.3681535,0.2796202,-0.11342531,0.15382746,0.82121116,0,0,0,0,0,0,0,0,0,0,0,0,0,0,0,0,0,0,0,0,0
30,2.7706788,-0.7801869,0.14219698,-0.028977323,-0.11547653,0.33075288,0.4305074,0.20799628,0.48452657,0,0,0,0,0,0,0,0,0,0,0,0,0,0,0,0,0,0,0,0,0
31,2.7609339,-0.7837412,0.12862815,0.0871365,-0.10269336,0.2018559,0.70494276,0.2988263,-0.08559271,0,0,0,0,0,0,0,0,0,0,0,0,0,0,0,0,0,0,0,0,0
32,2.7560513,-0.78703356,0.12493619,0.07648199,0.051764395,0.06337418,0.24884734,0.15068507,-0.17342998,0,0,0,0,0,0,0,0,0,0,0,0,0,0,0,0,0,0,0,0,0
33,2.7535326,-0.79000366,0.123653054,0.13826732,-0.092046306,0.054852065,0.046537295,0.16864158,0.24316111,0,0,0,0,0,0,0,0,0,0,0,0,0,0,0,0,0,0,0,0,0
34,2.751814,-0.7974557,0.114075966,0.298057,-0.3466445,0.09639738,0.050427873,0.0068833297,0.0163105,0,0,0,0,0,0,0,0,0,0,0,0,0,0,0,0,0,0,0,0,0
35,2.7485476,-0.8065044,0.10084146,0.23733692,-0.3349266,0.08467947,0.21532851,0.046986207,-0.38277298,0,0,0,0,0,0,0,0,0,0,0,0,0,0,0,0,0,0,0,0,0
36,2.745646,-0.812166,0.09174207,0.16276841,-0.25290123,0.045264684,-0.1448492,0.011222821,-0.15951368,0,0,0,0,0,0,0,0,0,0,0,0,0,0,0,0,0,0,0,0,0
37,2.73803,-0.82129973,0.08150826,0.426954,-0.38073295,0.28494918,-0.4261679,-0.05701193,-0.14754269,0,0,0,0,0,0,0,0,0,0,0,0,0,0,0,0,0,0,0,0,0
38,2.7151961,-0.8350777,0.05235094,0.22348848,-0.7173565,0.55872214,-0.89064306,0.12928689,-0.9210195,0,0,0,0,0,0,0,0,0,0,0,0,0,0,0,0,0,0,0,0,0
39,2.6922083,-0.8342364,0.010965779,-0.18450779,-0.53200054,0.53209054,0.65077394,-0.14469956,-0.3871125,0,0,0,0,0,0,0,0,0,0,0,0,0,0,0,0,0,0,0,0,0
40,2.6740925,-0.8278353,-0.012220964,-0.18450779,-0.048370462,0.35738716,0.7802105,0.20874447,0.18525136,0,0,0,0,0,0,0,0,0,0,0,0,0,0,0,0,0,0,0,0,0
41,2.6633008,-0.82456905,-0.021016857,-0.050284475,-0.08139366,0.179488,0.22954409,0.18839374,0.34805706,0,0,0,0,0,0,0,0,0,0,0,0,0,0,0,0,0,0,0,0,0
42,2.6566348,-0.82453305,-0.03244633,0.043458793,-0.20816013,0.17629221,0.28446108,0.15577275,0.16519992,0,0,0,0,0,0,0,0,0,0,0,0,0,0,0,0,0,0,0,0,0
43,2.647773,-0.8267354,-0.04300027,0.11589678,-0.118677914,0.19227117,0.0815525,0.2717419,0.253935,0,0,0,0,0,0,0,0,0,0,0,0,0,0,0,0,0,0,0,0,0
44,2.6404557,-0.83322346,-0.055694282,0.25118536,-0.34770977,0.08254894,0.21667525,0.4412813,0.07317279,0,0,0,0,0,0,0,0,0,0,0,0,0,0,0,0,0,0,0,0,0
45,2.6292179,-0.8446126,-0.06407339,0.28527382,-0.21881276,0.11770266,-0.93134445,1.8251299,-0.42841247,0,0,0,0,0,0,0,0,0,0,0,0,0,0,0,0,0,0,0,0,0
46,2.6133175,-0.85098004,-0.066565976,-0.0023475764,0.075200215,0.21144593,-1.8836381,3.132813,0.025887307,0,0,0,0,0,0,0,0,0,0,0,0,0,0,0,0,0,0,0,0,0
47,2.6143377,-0.8462264,-0.061505727,-0.081177145,-0.26994547,-0.21679036,-2.294094,2.3144448,3.060538,0,0,0,0,0,0,0,0,0,0,0,0,0,0,0,0,0,0,0,0,0
48,2.6171346,-0.8496648,-0.07211293,0.5004746,-0.56390786,0.115547635,-1.172261,1.489792,3.7779007,0,0,0,0,0,0,0,0,0,0,0,0,0,0,0,0,0,0,0,0,0
49,2.6007912,-0.8761026,-0.102596685,1.2110059,-0.2507201,0.32220894,1.546355,1.0899603,1.6554408,0,0,0,0,0,0,0,0,0,0,0,0,0,0,0,0,0,0,0,0,0
50,2.5931551,-0.9121309,-0.116936445,1.2120712,0.07738134,-0.108157896,2.2031145,0.7375638,0.69416887,0,0,0,0,0,0,0,0,0,0,0,0,0,0,0,0,0,0,0,0,0
51,2.6048517,-0.9441187,-0.10747761,1.1460248,0.18177725,-0.42347616,1.1399393,-0.6314707,0.83976626,0,0,0,0,0,0,0,0,0,0,0,0,0,0,0,0,0,0,0,0,0
52,2.6219273,-0.9804847,-0.09188188,1.328185,0.1711246,-0.40004036,0.9244611,-1.596334,0.24765024,0,0,0,0,0,0,0,0,0,0,0,0,0,0,0,0,0,0,0,0,0
53,2.6349375,-1.0193088,-0.08575219,1.291966,0.11999192,-0.3084276,1.4009073,-2.0560207,-1.2930186,0,0,0,0,0,0,0,0,0,0,0,0,0,0,0,0,0,0,0,0,0
54,2.6441305,-1.0544184,-0.082289726,0.92338455,0.3309143,-0.15076847,1.5502456,-2.2085013,-2.4982,0,0,0,0,0,0,0,0,0,0,0,0,0,0,0,0,0,0,0,0,0
55,2.6273723,-1.0709819,-0.098387934,0.24587634,0.7825864,0.5650892,1.6707039,-3.1536126,-3.1842883,0,0,0,0,0,0,0,0,0,0,0,0,0,0,0,0,0,0,0,0,0
56,2.5908995,-1.0610461,-0.13613972,-0.43589288,0.44276705,0.7760116,2.718616,-3.1376014,-2.484583,0,0,0,0,0,0,0,0,0,0,0,0,0,0,0,0,0,0,0,0,0
57,2.5789728,-1.029232,-0.16240916,-0.9323061,0.18816884,0.052697033,4.799177,-3.288436,-1.0935516,0,0,0,0,0,0,0,0,0,0,0,0,0,0,0,0,0,0,0,0,0
58,2.6328247,-1.0039448,-0.12230976,-0.6990132,0.31067425,-1.2927319,2.236334,-3.3750763,-0.8734347,0,0,0,0,0,0,0,0,0,0,0,0,0,0,0,0,0,0,0,0,0
59,2.7257502,-0.98875165,-0.014231001,-0.37517282,0.5184008,-1.6570524,-3.1144075,-2.4393923,-0.99389297,0,0,0,0,0,0,0,0,0,0,0,0,0,0,0,0,0,0,0,0,0
60,2.7945714,-0.9767033,0.059128955,-0.19514313,-0.5447331,-0.8165587,-6.013786,-1.1620857,-0.54976857,0,0,0,0,0,0,0,0,0,0,0,0,0,0,0,0,0,0,0,0,0
61,2.7924867,-0.97364783,0.03690116,-0.16105467,-1.108258,0.4340617,-1.8085201,-0.57610476,-1.191265,0,0,0,0,0,0,0,0,0,0,0,0,0,0,0,0,0,0,0,0,0
62,2.7627969,-0.96842253,-0.01957335,-0.40180442,-0.34872442,0.4404533,1.8359038,-0.22460605,-1.8564042,0,0,0,0,0,0,0,0,0,0,0,0,0,0,0,0,0,0,0,0,0
63,2.7644603,-0.94876015,-0.013980267,-0.94615453,0.67605996,-0.42986774,1.6157869,0.14080898,-1.2005426,0,0,0,0,0,0,0,0,0,0,0,0,0,0,0,0,0,0,0,0,0
64,2.7966673,-0.913008,0.051399626,-1.3040833,1.2981744,-0.7600997,-1.682226,-0.097414084,0.16415246,0,0,0,0,0,0,0,0,0,0,0,0,0,0,0,0,0,0,0,0,0
65,2.821965,-0.86897016,0.109613456,-1.2572118,0.7144095,-0.52893734,-3.5408747,1.338658,2.6099792,0,0,0,0,0,0,0,0,0,0,0,0,0,0,0,0,0,0,0,0,0
66,2.8271525,-0.8418095,0.13079326,-0.5583983,0.078446604,-0.16355164,-2.7742813,2.8179753,3.0865748,0,0,0,0,0,0,0,0,0,0,0,0,0,0,0,0,0,0,0,0,0
67,2.8311632,-0.8348681,0.12963791,0.018975023,-0.46590352,-0.22107592,-1.3883377,3.18354,2.8191724,0,0,0,0,0,0,0,0,0,0,0,0,0,0,0,0,0,0,0,0,0
68,2.8493807,-0.84133047,0.12606823,0.42590603,-0.6672385,-0.5459816,-0.23672669,1.7326539,1.8567034,0,0,0,0,0,0,0,0,0,0,0,0,0,0,0,0,0,0,0,0,0
69,2.880954,-0.8550484,0.13601393,0.70394003,-0.43501085,-0.6791396,-0.40327334,-0.22475569,0.7332243,0,0,0,0,0,0,0,0,0,0,0,0,0,0,0,0,0,0,0,0,0
70,2.9086068,-0.87362593,0.15331611,0.71565795,-0.25285062,-0.4618257,-0.7444471,-1.1453263,-0.61112,0,0,0,0,0,0,0,0,0,0,0,0,0,0,0,0,0,0,0,0,0
71,2.9244921,-0.8902162,0.16573343,0.5324325,-0.20491374,-0.25303385,-0.5693711,-1.3509283,-1.1047745,0,0,0,0,0,0,0,0,0,0,0,0,0,0,0,0,0,0,0,0,0
72,2.931139,-0.9033122,0.17159681,0.3992744,-0.2176969,-0.092178926,-0.51909286,-0.99898064,-1.1757027,0,0,0,0,0,0,0,0,0,0,0,0,0,0,0,0,0,0,0,0,0
73,2.9284322,-0.9150703,0.16947673,0.256529,-0.24113272,0.113417104,-0.470311,-0.30451253,-1.1990461,0,0,0,0,0,0,0,0,0,0,0,0,0,0,0,0,0,0,0,0,0
74,2.917716,-0.9219189,0.1543463,0.04560663,-0.31570125,0.19544247,0.24316111,0.27967268,-1.0122985,0,0,0,0,0,0,0,0,0,0,0,0,0,0,0,0,0,0,0,0,0
75,2.9089987,-0.9219945,0.13792402,-0.10672618,-0.30930966,0.09637287,0.4973954,0.58074355,-0.12928689,0,0,0,0,0,0,0,0,0,0,0,0,0,0,0,0,0,0,0,0,0
76,2.90605,-0.9212139,0.12790543,0.011518172,-0.23154534,0.0026296054,0.28999767,0.46851534,0.20350714,0,0,0,0,0,0,0,0,0,0,0,0,0,0,0,0,0,0,0,0,0
77,2.9040263,-0.9229642,0.12321492,0.022170816,-0.039797746,0.06548021,0.12838906,0.16804303,-0.16160862,0,0,0,0,0,0,0,0,0,0,0,0,0,0,0,0,0,0,0,0,0
78,2.8964348,-0.9231559,0.1228186,-0.07050719,0.3181311,0.17413718,0.07092822,-0.13227965,-0.3091513,0,0,0,0,0,0,0,0,0,0,0,0,0,0,0,0,0,0,0,0,0
79,2.8867848,-0.92025423,0.12833911,-0.14933676,0.46300706,0.15070136,0.108936176,-0.11731588,-0.103249945,0,0,0,0,0,0,0,0,0,0,0,0,0,0,0,0,0,0,0,0,0
80,2.8803432,-0.91666794,0.13633257,-0.13122725,0.37778592,0.074002326,0.05865794,0.09935937,0.07990648,0,0,0,0,0,0,0,0,0,0,0,0,0,0,0,0,0,0,0,0,0
81,2.8776505,-0.9151402,0.1404193,-0.016178703,0.07525081,0.021804364,0.17612346,0.18899229,0.1285387,0,0,0,0,0,0,0,0,0,0,0,0,0,0,0,0,0,0,0,0,0
82,2.878311,-0.9162976,0.13733777,0.014698518,-0.2358514,-0.062329687,0.35823244,0.08574235,-0.18719664,0,0,0,0,0,0,0,0,0,0,0,0,0,0,0,0,0,0,0,0,0
83,2.8833363,-0.91444683,0.13113008,-0.07584896,-0.3498347,-0.13689819,0.38217443,-0.15128362,0.052223526,0,0,0,0,0,0,0,0,0,0,0,0,0,0,0,0,0,0,0,0,0
84,2.8903518,-0.9121616,0.12692118,0.0072416677,-0.29763675,-0.16779086,0.2575263,-0.22670098,0.40851066,0,0,0,0,0,0,0,0,0,0,0,0,0,0,0,0,0,0,0,0,0
85,2.8976438,-0.91382664,0.12712604,0.09033229,-0.1879145,-0.16885613,0.038456865,-0.086490534,0.015562311,0,0,0,0,0,0,0,0,0,0,0,0,0,0,0,0,0,0,0,0,0
86,2.9037213,-0.91506755,0.13106506,-0.008737299,-0.068604894,-0.14435504,-0.15053543,-0.048033673,-0.24196401,0,0,0,0,0,0,0,0,0,0,0,0,0,0,0,0,0,0,0,0,0
87,2.9070003,-0.91206616,0.13619664,-0.10567636,0.020877318,-0.08150445,-0.32531217,-0.03127426,0.14350246,0,0,0,0,0,0,0,0,0,0,0,0,0,0,0,0,0,0,0,0,0
88,2.907181,-0.9090743,0.13803807,-0.04708682,-0.021733258,-0.017588582,-0.22924481,0.021398177,0.37813422,0,0,0,0,0,0,0,0,0,0,0,0,0,0,0,0,0,0,0,0,0
89,2.9057643,-0.909156,0.13796689,0.014698518,-0.019602729,0.010108294,-0.079457566,0.018255789,0.12300211,0,0,0,0,0,0,0,0,0,0,0,0,0,0,0,0,0,0,0,0,0
90,2.9042213,-0.90935266,0.13763714,-0.010867828,-0.016406937,-0.0016096146,0.023044191,0.06000468,0.07407062,0,0,0,0,0,0,0,0,0,0,0,0,0,0,0,0,0,0,0,0,0
91,2.9037669,-0.90924096,0.1370649,0.022155369,-0.056886986,-0.025045432,0.06494272,0.042048167,0.185401,0,0,0,0,0,0,0,0,0,0,0,0,0,0,0,0,0,0,0,0,0
92,2.9043236,-0.91012967,0.13728718,0.032808013,-0.056886986,-0.033567548,-0.046986207,-0.02124854,0.101454295,0,0,0,0,0,0,0,0,0,0,0,0,0,0,0,0,0,0,0,0,0
93,2.9044523,-0.9106173,0.13750343,0.013633254,-0.011080614,-0.021849638,-0.024091655,0.012120646,0.048931498,0,0,0,0,0,0,0,0,0,0,0,0,0,0,0,0,0,0,0,0,0
94,2.9039264,-0.9103138,0.13913497,0.0040458743,0.04963946,-0.008001201,0.023792379,0.056114104,0.3215712,0,0,0,0,0,0,0,0,0,0,0,0,0,0,0,0,0,0,0,0,0
95,2.9038281,-0.9121276,0.14121227,0.10418073,-0.0046890276,-0.015458052,-0.06359598,0.022595279,0.20545243,0,0,0,0,0,0,0,0,0,0,0,0,0,0,0,0,0,0,0,0,0
96,2.903703,-0.91617304,0.14187075,0.12761655,-0.04197328,-0.002674879,-0.016609775,0.022894554,-0.090979666,0,0,0,0,0,0,0,0,0,0,0,0,0,0,0,0,0,0,0,0,0
97,2.902948,-0.92036265,0.14202529,0.1318776,-0.027059581,0.0090430295,-0.06314707,0.006584055,-0.11192893,0,0,0,0,0,0,0,0,0,0,0,0,0,0,0,0,0,0,0,0,0
98,2.9010434,-0.9254225,0.14179417,0.15427506,-0.017393371,0.035636555,-0.036361936,0.032621,-0.24076691,0,0,0,0,0,0,0,0,0,0,0,0,0,0,0,0,0,0,0,0,0
99,2.899035,-0.9305794,0.13970147,0.1201866,-0.078113444,0.019657591,0.19826983,-0.015263036,-0.45504797,0,0,0,0,0,0,0,0,0,0,0,0,0,0,0,0,0,0,0,0,0
100,2.8984776,-0.93339866,0.13611801,0.04987914,-0.16653039,-0.02401825,0.22071546,0.0013467384,-0.22325931,0,0,0,0,0,0,0,0,0,0,0,0,0,0,0,0,0,0,0,0,0
101,2.9000282,-0.93400395,0.13336886,-0.0033840789,-0.12818088,-0.06236777,0.13392566,-0.029179333,-0.12270284,0,0,0,0,0,0,0,0,0,0,0,0,0,0,0,0,0,0,0,0,0
102,2.9015722,-0.93366647,0.13473143,-0.012971459,0.03800038,-0.042127747,0.027982233,-0.023642741,-0.05641338,0,0,0,0,0,0,0,0,0,0,0,0,0,0,0,0,0,0,0,0,0
103,2.9018862,-0.9333315,0.13831814,0.0062033013,0.084872015,-0.02401825,0.018405426,-0.012868834,0.08604162,0,0,0,0,0,0,0,0,0,0,0,0,0,0,0,0,0,0,0,0,0
104,2.9024985,-0.9342484,0.14081171,0.043487556,-0.0078059915,-0.04106248,0.070180036,-5.985504E-4,-0.008379706,0,0,0,0,0,0,0,0,0,0,0,0,0,0,0,0,0,0,0,0,0
105,2.9041927,-0.93511677,0.14261,0.01792121,-0.039763924,-0.055976182,-1.496376E-4,-0.035314474,-0.10534488,0,0,0,0,0,0,0,0,0,0,0,0,0,0,0,0,0,0,0,0,0
106,2.9056938,-0.9348261,0.14476629,0.0030075079,-0.015262842,-0.044258274,-0.122253925,-0.03815759,0.06464344,0,0,0,0,0,0,0,0,0,0,0,0,0,0,0,0,0,0,0,0,0
107,2.9055798,-0.93561244,0.14639458,0.04455282,-3.491404E-4,-0.0027129622,-0.18689737,-0.0034416649,0.044292733,0,0,0,0,0,0,0,0,0,0,0,0,0,0,0,0,0,0,0,0,0
108,2.9042969,-0.9373742,0.14740841,0.04987914,0.0071077105,0.010070211,-0.13841479,-0.014514848,-0.10908581,0,0,0,0,0,0,0,0,0,0,0,0,0,0,0,0,0,0,0,0,0
109,2.9023685,-0.9387921,0.14739357,0.047748614,-0.008871255,0.030310236,-0.09367314,-0.05626374,0.03561375,0,0,0,0,0,0,0,0,0,0,0,0,0,0,0,0,0,0,0,0,0
110,2.900045,-0.9406458,0.14613003,0.058401257,-0.018458636,0.030310236,0.0062847794,-0.04623802,-0.0026934769,0,0,0,0,0,0,0,0,0,0,0,0,0,0,0,0,0,0,0,0,0
111,2.8977504,-0.9425266,0.1458199,0.033900175,0.031608794,0.035636555,0.008678981,-0.011522096,-0.10803835,0,0,0,0,0,0,0,0,0,0,0,0,0,0,0,0,0,0,0,0,0
112,2.8949733,-0.94384587,0.14614803,0.028573854,0.04865302,0.035636555,-0.0073322426,0.039055414,-0.11507132,0,0,0,0,0,0,0,0,0,0,0,0,0,0,0,0,0,0,0,0,0
113,2.8922307,-0.9449446,0.14631452,0.012594888,0.034804586,0.03670182,0.033518825,0.044741645,-0.088585466,0,0,0,0,0,0,0,0,0,0,0,0,0,0,0,0,0,0,0,0,0
114,2.889711,-0.9459531,0.1457022,0.020051738,0.003911917,0.03350603,0.047285482,0.035763387,-0.08140286,0,0,0,0,0,0,0,0,0,0,0,0,0,0,0,0,0,0,0,0,0
115,2.8880112,-0.94694203,0.14427523,0.04135117,-0.032323852,0.005817409,0.0712275,0.08963293,0.021547815,0,0,0,0,0,0,0,0,0,0,0,0,0,0,0,0,0,0,0,0,0
116,2.8874853,-0.9487905,0.14381908,0.0583954,-0.040845968,0.0047521447,-0.018555064,0.019752163,-0.03067571,0,0,0,0,0,0,0,0,0,0,0,0,0,0,0,0,0,0,0,0,0
117,2.8865888,-0.9506579,0.14209443,0.063721724,-0.06321652,0.018600583,-0.002244564,0.0052373162,0.041748893,0,0,0,0,0,0,0,0,0,0,0,0,0,0,0,0,0,0,0,0,0
118,2.8853548,-0.95303357,0.14054288,0.061591193,-0.031258587,0.02073111,0.061650693,0.012270284,-0.06180033,0,0,0,0,0,0,0,0,0,0,0,0,0,0,0,0,0,0,0,0,0
119,2.883845,-0.95491904,0.13960469,0.0583954,-0.009953299,0.017535318,0.048482586,-0.026036944,-0.11207857,0,0,0,0,0,0,0,0,0,0,0,0,0,0,0,0,0,0,0,0,0
120,2.8827982,-0.9567522,0.13872193,0.045612227,-0.022736471,0.009013202,0.103249945,0.0032920274,-0.1225532,0,0,0,0,0,0,0,0,0,0,0,0,0,0,0,0,0,0,0,0,0
121,2.8823087,-0.9582248,0.13831209,0.03389432,-0.039780702,-0.008031028,0.02184709,0.026036944,-0.14888942,0,0,0,0,0,0,0,0,0,0,0,0,0,0,0,0,0,0,0,0,0
122,2.881221,-0.95912814,0.1382199,0.017915351,-0.009953299,0.016470054,-0.11088146,-0.008529344,-0.08499416,0,0,0,0,0,0,0,0,0,0,0,0,0,0,0,0,0,0,0,0,0
123,2.8791096,-0.96009576,0.13703306,0.015784822,-0.0035617116,0.03457955,0.03441665,-0.025737667,-0.052971713,0,0,0,0,0,0,0,0,0,0,0,0,0,0,0,0,0,0,0,0,0
124,2.8771918,-0.961126,0.13576628,0.03389432,0.0028298749,0.022861639,0.100257196,-0.024540568,-0.099658646,0,0,0,0,0,0,0,0,0,0,0,0,0,0,0,0,0,0,0,0,0
125,2.8760104,-0.961633,0.1347215,-0.00871626,-0.021671208,0.018600583,0.10250176,-0.0028431145,-0.10878654,0,0,0,0,0,0,0,0,0,0,0,0,0,0,0,0,0,0,0,0,0
126,2.8749433,-0.9610645,0.13296989,8.7111996E-4,-0.029128058,0.0068826736,0.055216275,0.040252518,0.18794483,0,0,0,0,0,0,0,0,0,0,0,0,0,0,0,0,0,0,0,0,0
127,2.8743172,-0.9621969,0.13207538,0.04241643,-0.004626976,0.0068826736,0.0815525,0.03067571,-0.021547815,0,0,0,0,0,0,0,0,0,0,0,0,0,0,0,0,0,0,0,0,0
128,2.8736398,-0.9630805,0.13310975,0.009393236,0.04437519,0.011143731,-0.012868834,0.008379706,-7.48188E-4,0,0,0,0,0,0,0,0,0,0,0,0,0,0,0,0,0,0,0,0,0
129,2.8726459,-0.9641803,0.1337723,0.059460662,0.0028298749,0.023926904,-0.08304887,-0.015711948,0.031124622,0,0,0,0,0,0,0,0,0,0,0,0,0,0,0,0,0,0,0,0,0
130,2.870384,-0.96711165,0.1317154,0.062656455,-0.031258587,0.05162378,0.027084406,0.017806875,-0.30765492,0,0,0,0,0,0,0,0,0,0,0,0,0,0,0,0,0,0,0,0,0
131,2.868007,-0.9685971,0.12950711,0.003001649,0.0017646105,0.031383757,0.13916297,0.026635494,-0.25408465,0,0,0,0,0,0,0,0,0,0,0,0,0,0,0,0,0,0,0,0,0
132,2.8668885,-0.96854454,0.12897183,-0.00977966,-0.009947705,0.0100755375,0.04309563,0.004189853,-0.098461546,0,0,0,0,0,0,0,0,0,0,0,0,0,0,0,0,0,0,0,0,0
133,2.8658211,-0.9685448,0.12822808,-0.008714396,-0.024861408,0.014336595,0.023493104,-0.021398177,-0.073023155,0,0,0,0,0,0,0,0,0,0,0,0,0,0,0,0,0,0,0,0,0
134,2.864296,-0.96855307,0.12701817,-0.002322809,-0.017404556,0.019662917,-0.014814123,-0.033369187,-0.034715924,0,0,0,0,0,0,0,0,0,0,0,0,0,0,0,0,0,0,0,0,0
135,2.8619509,-0.9688668,0.12583493,-0.007649131,-0.0056866477,0.04203347,-0.08035539,-0.05581483,-0.15472528,0,0,0,0,0,0,0,0,0,0,0,0,0,0,0,0,0,0,0,0,0
136,2.8587978,-0.96912044,0.12502483,-0.014040718,0.009227054,0.060142964,-0.18151042,-0.05686229,-0.20260932,0,0,0,0,0,0,0,0,0,0,0,0,0,0,0,0,0,0,0,0,0
137,2.852955,-0.96914893,0.12175756,-0.034280743,0.030532343,0.10062301,-0.11656769,-0.09202713,-0.28431144,0,0,0,0,0,0,0,0,0,0,0,0,0,0,0,0,0,0,0,0,0
138,2.8472703,-0.9675156,0.118575215,-0.09926187,0.07527345,0.08783984,0.1695394,-0.032172084,-0.09876082,0,0,0,0,0,0,0,0,0,0,0,0,0,0,0,0,0,0,0,0,0
139,2.8440623,-0.96482044,0.11625583,-0.0683692,-0.057884604,0.038837675,0.062249243,0.036511578,0.32471362,0,0,0,0,0,0,0,0,0,0,0,0,0,0,0,0,0,0,0,0,0
140,2.841622,-0.9640501,0.11101089,0.009395099,-0.10156044,0.04203347,0.051624972,0.01690905,0.18689737,0,0,0,0,0,0,0,0,0,0,0,0,0,0,0,0,0,0,0,0,0
141,2.8390694,-0.96470076,0.10718702,-0.0033880735,7.049387E-4,0.04735979,0.17283143,-0.018405426,-0.07332243,0,0,0,0,0,0,0,0,0,0,0,0,0,0,0,0,0,0,0,0,0
142,2.836947,-0.9632849,0.106432065,-0.06304288,0.072077654,0.03457662,0.16924013,-0.017208325,0.14454992,0,0,0,0,0,0,0,0,0,0,0,0,0,0,0,0,0,0,0,0,0
143,2.8351138,-0.9617632,0.10574222,-0.0033880735,0.0145533765,0.033511356,0.13362639,0.030825347,0.3633201,0,0,0,0,0,0,0,0,0,0,0,0,0,0,0,0,0,0,0,0,0
144,2.833676,-0.9624504,0.10365838,0.04774462,-0.03764458,0.031380825,0.15367782,0.10579379,0.21936873,0,0,0,0,0,0,0,0,0,0,0,0,0,0,0,0,0,0,0,0,0
145,2.8323402,-0.9647174,0.1017128,0.043483563,0.018814433,0.018597653,0.19078794,0.08424597,-0.09068039,0,0,0,0,0,0,0,0,0,0,0,0,0,0,0,0,0,0,0,0,0
146,2.831481,-0.9661627,0.10247614,0.042418297,0.06462081,0.0058144797,0.14529811,0.03561375,-0.07227496,0,0,0,0,0,0,0,0,0,0,0,0,0,0,0,0,0,0,0,0,0
147,2.8313515,-0.9679928,0.10427462,0.06052779,0.015618641,-0.009099223,0.05955577,-0.002992752,-0.13557167,0,0,0,0,0,0,0,0,0,0,0,0,0,0,0,0,0,0,0,0,0
148,2.8313203,-0.969702,0.10390648,0.029631395,-0.046177883,-0.0058978363,0.05955577,0.022146367,-0.1798644,0,0,0,0,0,0,0,0,0,0,0,0,0,0,0,0,0,0,0,0,0
149,2.8311431,-0.9703554,0.10267092,-0.0055223308,-0.018481007,-0.015485216,0.20006548,0.051624972,-0.0947206,0,0,0,0,0,0,0,0,0,0,0,0,0,0,0,0,0,0,0,0,0
150,2.8324096,-0.9702269,0.10392546,0.0125871645,-0.0046325685,-0.04318209,0.070180036,-0.0028431145,0.034566287,0,0,0,0,0,0,0,0,0,0,0,0,0,0,0,0,0,0,0,0,0
151,2.833205,-0.97100896,0.10530677,0.037088245,-0.015285213,-0.02613786,-0.029029695,-0.030526072,-0.07676409,0,0,0,0,0,0,0,0,0,0,0,0,0,0,0,0,0,0,0,0,0
152,2.83373,-0.9721752,0.105700254,0.006195578,-0.01954627,-0.013354688,0.020051438,-0.010175358,-0.17133506,0,0,0,0,0,0,0,0,0,0,0,0,0,0,0,0,0,0,0,0,0
153,2.8340511,-0.9720873,0.10598569,-0.001261273,-0.017415741,-0.029333655,0.0537199,-0.011372458,-0.009427169,0,0,0,0,0,0,0,0,0,0,0,0,0,0,0,0,0,0,0,0,0
154,2.8351,-0.9723264,0.107325874,0.009391371,-0.025937857,-0.038921032,-0.043394905,0.0020949265,-0.08020575,0,0,0,0,0,0,0,0,0,0,0,0,0,0,0,0,0,0,0,0,0
155,2.8355603,-0.9724465,0.10840156,-0.006587595,-0.013154685,-0.02081154,-0.096216984,-0.043544542,-0.1086369,0,0,0,0,0,0,0,0,0,0,0,0,0,0,0,0,0,0,0,0,0
156,2.8358183,-0.9720019,0.1090015,0.009391371,-0.028068386,-0.022942068,-0.03755904,-0.047135845,0.037409402,0,0,0,0,0,0,0,0,0,0,0,0,0,0,0,0,0,0,0,0,0
157,2.8357244,-0.97252685,0.10959113,0.014717693,-0.03445997,-0.0122894235,-0.11327567,-0.046088383,-0.09651626,0,0,0,0,0,0,0,0,0,0,0,0,0,0,0,0,0,0,0,0,0
158,2.8350577,-0.9726857,0.108908005,-0.008718124,-0.027003122,0.0058200723,-0.07047931,-0.029927522,-0.045489833,0,0,0,0,0,0,0,0,0,0,0,0,0,0,0,0,0,0,0,0,0
159,2.8338826,-0.97245646,0.10858229,-0.016174976,-0.023807328,0.0015590144,-0.103249945,-0.048632223,-0.07167641,0,0,0,0,0,0,0,0,0,0,0,0,0,0,0,0,0,0,0,0,0
160,2.8327413,-0.9717754,0.1082338,-0.0513287,-0.03339471,0.01008113,-0.1619079,-0.10130466,-0.09322423,0,0,0,0,0,0,0,0,0,0,0,0,0,0,0,0,0,0,0,0,0
161,2.8310478,-0.96990454,0.10717743,-0.066242404,-0.01208942,0.023929568,-0.13931261,-0.089184016,0.01690905,0,0,0,0,0,0,0,0,0,0,0,0,0,0,0,0,0,0,0,0,0
162,2.8284528,-0.9676202,0.10466186,-0.025762355,-0.007828362,0.035647478,-0.028281508,-0.038307227,0.19841947,0,0,0,0,0,0,0,0,0,0,0,0,0,0,0,0,0,0,0,0,0
163,2.8265765,-0.96808916,0.10428743,0.04028404,0.019868514,0.04630012,-0.118213706,-0.011372458,0.015711948,0,0,0,0,0,0,0,0,0,0,0,0,0,0,0,0,0,0,0,0,0
164,2.823306,-0.9694168,0.10239127,0.026435602,0.0262601,0.070801206,0.054168813,-0.05686229,-0.07287352,0,0,0,0,0,0,0,0,0,0,0,0,0,0,0,0,0,0,0,0,0
165,2.8197927,-0.9706832,0.09990613,0.022174545,0.020933777,0.040973797,0.21203649,0.05641338,-0.048033673,0,0,0,0,0,0,0,0,0,0,0,0,0,0,0,0,0,0,0,0,0
166,2.8184142,-0.9716777,0.09910261,0.027500866,0.020933777,0.016472716,0.16220717,0.05626374,-0.12150574,0,0,0,0,0,0,0,0,0,0,0,0,0,0,0,0,0,0,0,0,0
167,2.8179855,-0.9721689,0.09956723,0.0125871645,0.0017590179,0.007950601,0.063895255,-0.023493104,-0.07975684,0,0,0,0,0,0,0,0,0,0,0,0,0,0,0,0,0,0,0,0,0
168,2.816971,-0.97293305,0.098343134,0.01897875,-0.046177883,0.02179904,-0.0199018,-0.05701193,-0.1455974,0,0,0,0,0,0,0,0,0,0,0,0,0,0,0,0,0,0,0,0,0
169,2.8147454,-0.97426075,0.095955096,0.036022983,-0.070678964,0.04630012,-0.09412205,-0.03067571,-0.25363573,0,0,0,0,0,0,0,0,0,0,0,0,0,0,0,0,0,0,0,0,0
170,2.8116634,-0.97585577,0.09255942,-0.011913917,-0.072809495,0.04310433,-0.08020575,-0.07870938,-0.56203884,0,0,0,0,0,0,0,0,0,0,0,0,0,0,0,0,0,0,0,0,0
171,2.8082678,-0.97348076,0.08710034,-0.1173751,-0.06322211,0.04630012,0.057909753,-0.06569091,-0.19153613,0,0,0,0,0,0,0,0,0,0,0,0,0,0,0,0,0,0,0,0,0
172,2.806151,-0.9708675,0.08374813,-0.10246139,-0.046177883,0.030321155,0.10579379,0.006135142,0.050278235,0,0,0,0,0,0,0,0,0,0,0,0,0,0,0,0,0,0,0,0,0
173,2.80445,-0.96831965,0.08078396,-0.08009084,-0.039786294,0.024994832,0.11716624,0.04938041,0.053570263,0,0,0,0,0,0,0,0,0,0,0,0,0,0,0,0,0,0,0,0,0
174,2.803417,-0.965594,0.07762833,-0.059850816,-0.045112617,0.0068853367,0.15233108,0.04504092,0.23433249,0,0,0,0,0,0,0,0,0,0,0,0,0,0,0,0,0,0,0,0,0
175,2.8032286,-0.96428156,0.07613797,-0.031088676,-0.01954627,-0.0016367788,0.13557167,0.027084406,0.23732524,0,0,0,0,0,0,0,0,0,0,0,0,0,0,0,0,0,0,0,0,0
176,2.803586,-0.96300954,0.07558329,-0.040676057,-0.0025020398,-0.011224159,0.1798644,-0.013617022,0.20739773,0,0,0,0,0,0,0,0,0,0,0,0,0,0,0,0,0,0,0,0,0
177,2.804612,-0.96117085,0.075292766,-1.9600865E-4,-0.025937857,-0.016550481,0.09367314,0.052971713,0.47180736,0,0,0,0,0,0,0,0,0,0,0,0,0,0,0,0,0,0,0,0,0
178,2.8052068,-0.9621802,0.07515663,0.080764085,-0.0035673042,-0.0069631007,0.09023148,0.053420626,0.26830024,0,0,0,0,0,0,0,0,0,0,0,0,0,0,0,0,0,0,0,0,0
179,2.805344,-0.9656721,0.07592073,0.082894616,0.029455893,-0.010158895,0.15292963,0.051325697,-0.07107786,0,0,0,0,0,0,0,0,0,0,0,0,0,0,0,0,0,0,0,0,0
180,2.8060684,-0.9673381,0.077752486,0.054132476,0.024129571,-0.033594713,0.069132574,0.028580783,-0.07107786,0,0,0,0,0,0,0,0,0,0,0,0,0,0,0,0,0,0,0,0,0
181,2.8073924,-0.9692275,0.0795777,0.07650303,-0.028068386,-0.03146418,-0.07885902,-0.033967737,-0.044891283,0,0,0,0,0,0,0,0,0,0,0,0,0,0,0,0,0,0,0,0,0
182,2.808181,-0.9718461,0.08041797,0.07862797,-0.025954902,-0.015477227,-0.11162966,-0.0398036,-0.1412579,0,0,0,0,0,0,0,0,0,0,0,0,0,0,0,0,0,0,0,0,0
183,2.80792,-0.9742408,0.08090591,0.07330164,0.0038725026,0.0058280616,-0.082899235,-0.043394905,-0.18315643,0,0,0,0,0,0,0,0,0,0,0,0,0,0,0,0,0,0,0,0,0
184,2.8070369,-0.977383,0.08134664,0.06051847,-0.009975935,-0.0048245825,-0.041599255,-0.021398177,-0.35598788,0,0,0,0,0,0,0,0,0,0,0,0,0,0,0,0,0,0,0,0,0
185,2.8066044,-0.978646,0.08131416,0.018973159,-0.042999133,-0.005889847,-0.04189853,-0.053570263,-0.26964697,0,0,0,0,0,0,0,0,0,0,0,0,0,0,0,0,0,0,0,0,0
186,2.806,-0.9791646,0.08009883,-0.010854245,-0.04939072,-0.0016287894,0.024091655,-0.014963761,-0.19841947,0,0,0,0,0,0,0,0,0,0,0,0,0,0,0,0,0,0,0,0,0
187,2.805598,-0.9783935,0.079428755,-0.027898476,-0.012106464,-0.0037593183,0.004938041,-0.0053869537,-0.058358666,0,0,0,0,0,0,0,0,0,0,0,0,0,0,0,0,0,0,0,0,0
188,2.804859,-0.9779162,0.07934664,-0.015115303,0.0028072381,0.0058280616,0.02124854,-0.02184709,-0.0525228,0,0,0,0,0,0,0,0,0,0,0,0,0,0,0,0,0,0,0,0,0
189,2.8040488,-0.9775124,0.07890231,-0.019376362,-0.007845406,0.004762797,0.036810853,-0.0028431145,-0.039055414,0,0,0,0,0,0,0,0,0,0,0,0,0,0,0,0,0,0,0,0,0
190,2.8039703,-0.9766592,0.07847343,-0.03109427,-0.017432787,-0.01654249,0.06718729,0.030974984,0.045789108,0,0,0,0,0,0,0,0,0,0,0,0,0,0,0,0,0,0,0,0,0
191,2.8046925,-0.9752599,0.07907522,-0.025767948,0.00813356,-0.011216169,-0.044143096,-0.028880058,0.21936873,0,0,0,0,0,0,0,0,0,0,0,0,0,0,0,0,0,0,0,0,0
192,2.8044748,-0.9745598,0.07945483,8.6366315E-4,0.030504113,0.013284912,-0.016460137,0.011522096,0.22026655,0,0,0,0,0,0,0,0,0,0,0,0,0,0,0,0,0,0,0,0,0
193,2.8032682,-0.97484046,0.079900965,0.017907893,0.06885363,0.016480707,0.090381116,0.007930793,0.099658646,0,0,0,0,0,0,0,0,0,0,0,0,0,0,0,0,0,0,0,0,0
194,2.803007,-0.97538966,0.081251495,0.027495274,0.033699907,-0.005889847,0.088585466,0.016460137,0.093373865,0,0,0,0,0,0,0,0,0,0,0,0,0,0,0,0,0,0,0,0,0
195,2.8037045,-0.97660244,0.08246982,0.05519215,-0.0035843486,-0.023999343,0.06344634,-0.0062847794,0.020350715,0,0,0,0,0,0,0,0,0,0,0,0,0,0,0,0,0,0,0,0,0
196,2.8045757,-0.97842926,0.08387223,0.063714266,0.014525147,-0.00908564,-0.057909753,-0.0073322426,-0.058957215,0,0,0,0,0,0,0,0,0,0,0,0,0,0,0,0,0,0,0,0,0
197,2.8038633,-0.98070914,0.08460727,0.05519215,0.043287285,0.007958591,0.0712275,0.035164837,-0.2148796,0,0,0,0,0,0,0,0,0,0,0,0,0,0,0,0,0,0,0,0,0
198,2.804033,-0.98220354,0.086353466,0.02749341,-0.0035899412,-0.026127208,0.013317747,-0.009876082,-0.21188685,0,0,0,0,0,0,0,0,0,0,0,0,0,0,0,0,0,0,0,0,0
199,2.804559,-0.98295236,0.086610556,0.02003656,-0.038743667,-0.0069524483,-0.063296705,0.0020949265,-0.1388637,0,0,0,0,0,0,0,0,0,0,0,0,0,0,0,0,0,0,0,0,0
200,2.8041914,-0.9837537,0.08665563,0.02003656,6.711166E-4,-0.0026913907,-0.023792379,-0.034865562,-0.21158758,0,0,0,0,0,0,0,0,0,0,0,0,0,0,0,0,0,0,0,0,0
201,2.8036501,-0.98432904,0.0869995,-0.005529788,-0.011046792,-0.0016261261,-0.028431145,-0.06299743,-0.21054012,0,0,0,0,0,0,0,0,0,0,0,0,0,0,0,0,0,0,0,0,0
202,2.8033323,-0.98354065,0.08635426,-0.03961825,-0.025960494,-0.0069524483,0.042646717,-0.044741645,-0.08723872,0,0,0,0,0,0,0,0,0,0,0,0,0,0,0,0,0,0,0,0,0
203,2.8032305,-0.9821509,0.0860635,-0.02790034,0.001736381,-5.608617E-4,0.034267012,-0.011222821,0.06000468,0,0,0,0,0,0,0,0,0,0,0,0,0,0,0,0,0,0,0,0,0
204,2.8028483,-0.9821218,0.0862362,0.00831865,0.0028016455,0.003700196,-0.004938041,-0.015711948,-0.020201078,0,0,0,0,0,0,0,0,0,0,0,0,0,0,0,0,0,0,0,0,0
205,2.8025818,-0.9818431,0.08544729,-0.031096134,-0.02702576,-0.0026913907,0.046986207,-0.006135142,-0.050128598,0,0,0,0,0,0,0,0,0,0,0,0,0,0,0,0,0,0,0,0,0
206,2.8026123,-0.9806109,0.08472754,-0.024704548,-0.012112057,-0.010148241,0.04818331,0.0023942017,0.16205753,0,0,0,0,0,0,0,0,0,0,0,0,0,0,0,0,0,0,0,0,0
207,2.8030572,-0.98067516,0.08523265,0.024297616,0.0070627034,-0.009082977,0.0026934769,-0.025139118,0.08065467,0,0,0,0,0,0,0,0,0,0,0,0,0,0,0,0,0,0,0,0,0
208,2.8032105,-0.98114854,0.085748695,0.0072533856,0.0038669098,-5.608617E-4,0.002992752,-0.016460137,-0.039205052,0,0,0,0,0,0,0,0,0,0,0,0,0,0,0,0,0,0,0,0,0
209,2.803089,-0.98099726,0.08575248,-2.034655E-4,0.0070627034,-5.608617E-4,0.0074818805,-0.0058358666,0.051325697,0,0,0,0,0,0,0,0,0,0,0,0,0,0,0,0,0,0,0,0,0
210,2.8026636,-0.9817186,0.08615078,0.040276583,0.015584819,0.010091783,-0.043394905,-0.028281508,-0.0023942017,0,0,0,0,0,0,0,0,0,0,0,0,0,0,0,0,0,0,0,0,0
211,2.8017712,-0.9832939,0.08613369,0.024297616,0.018780611,0.0058307247,0.066738375,-0.0019452889,-0.25737667,0,0,0,0,0,0,0,0,0,0,0,0,0,0,0,0,0,0,0,0,0
212,2.801396,-0.98343724,0.08686712,-0.021508753,0.0038669098,-0.01227877,7.48188E-4,0.017208325,-0.14963761,0,0,0,0,0,0,0,0,0,0,0,0,0,0,0,0,0,0,0,0,0
213,2.8014312,-0.9832611,0.08711055,8.6179894E-4,-0.025960494,-0.0048219194,-0.051774614,-0.0175076,-0.0966659,0,0,0,0,0,0,0,0,0,0,0,0,0,0,0,0,0,0,0,0,0
214,2.800627,-0.9838644,0.086787015,0.0019270633,6.711166E-4,0.012222311,-0.029927522,-0.054617725,-0.21817163,0,0,0,0,0,0,0,0,0,0,0,0,0,0,0,0,0,0,0,0,0
215,2.799331,-0.98383516,0.08595162,-0.031113444,-0.0121626565,0.0047899615,0.06584055,-0.010324995,-0.23133974,0,0,0,0,0,0,0,0,0,0,0,0,0,0,0,0,0,0,0,0,0
216,2.7991648,-0.98243874,0.08496334,-0.05241873,-0.04838165,-0.011189005,0.02184709,-0.049230773,-0.07691373,0,0,0,0,0,0,0,0,0,0,0,0,0,0,0,0,0,0,0,0,0
217,2.799186,-0.9806706,0.083466396,-0.04176609,-0.035598475,0.0026594326,0.026934769,-0.045489833,0.092775315,0,0,0,0,0,0,0,0,0,0,0,0,0,0,0,0,0,0,0,0,0
218,2.7988105,-0.9794514,0.0823786,-0.033243973,-0.007901599,0.003724697,0.047285482,-0.010773907,0.13467385,0,0,0,0,0,0,0,0,0,0,0,0,0,0,0,0,0,0,0,0,0
219,2.798718,-0.9785843,0.08188953,-0.016199743,-0.003640541,-0.0026668895,0.08020575,0.016759412,0.09561843,0,0,0,0,0,0,0,0,0,0,0,0,0,0,0,0,0,0,0,0,0
220,2.7990673,-0.97803503,0.08134,-0.004481834,-0.028141623,-0.010123741,0.07287352,0.0052373162,0.15278,0,0,0,0,0,0,0,0,0,0,0,0,0,0,0,0,0,0,0,0,0
221,2.7996664,-0.97761834,0.08071275,0.0029750173,-0.018554242,-0.009058476,0.06494272,0.016460137,0.21278468,0,0,0,0,0,0,0,0,0,0,0,0,0,0,0,0,0,0,0,0,0
222,2.800751,-0.97771263,0.081308216,0.03280242,0.016599484,-0.021841649,0.082899235,0.018854339,0.21398178,0,0,0,0,0,0,0,0,0,0,0,0,0,0,0,0,0,0,0,0,0
223,2.8021047,-0.97917145,0.08293179,0.060499296,0.011273161,-0.022906914,0.027682956,0.007182605,0.050427873,0,0,0,0,0,0,0,0,0,0,0,0,0,0,0,0,0,0,0,0,0
224,2.8034658,-0.98075235,0.08421438,0.05091192,0.007012103,-0.03249429,0.08215105,0.038007952,0.06299743,0,0,0,0,0,0,0,0,0,0,0,0,0,0,0,0,0,0,0,0,0
225,2.8056073,-0.98243433,0.086537234,0.06582562,0.007012103,-0.047407996,0.0134673845,-0.010324995,-0.017357962,0,0,0,0,0,0,0,0,0,0,0,0,0,0,0,0,0,0,0,0,0
226,2.8072927,-0.98459345,0.08886055,0.06795615,-0.011097392,-0.023972178,-0.11222821,-0.027084406,-0.11192893,0,0,0,0,0,0,0,0,0,0,0,0,0,0,0,0,0,0,0,0,0
227,2.807286,-0.9871072,0.089958705,0.06262983,0.012338425,-0.006927947,0.015113398,-0.0525228,-0.23687632,0,0,0,0,0,0,0,0,0,0,0,0,0,0,0,0,0,0,0,0,0
228,2.8068702,-0.98908263,0.09125829,0.03493295,0.007012103,-0.006927947,-0.012270284,-0.03875614,-0.31588498,0,0,0,0,0,0,0,0,0,0,0,0,0,0,0,0,0,0,0,0,0
229,2.8065164,-0.9904913,0.09166205,0.030671893,-0.05903429,-0.009058476,-0.10534488,-0.031124622,-0.33713353,0,0,0,0,0,0,0,0,0,0,0,0,0,0,0,0,0,0,0,0,0
230,2.8055646,-0.9923939,0.09028977,0.027476098,-0.08779643,-0.003732154,-0.10295067,-0.06344634,-0.5597943,0,0,0,0,0,0,0,0,0,0,0,0,0,0,0,0,0,0,0,0,0
231,2.8039544,-0.9925803,0.087690845,-0.06307138,-0.057969026,0.010116284,0.046537295,-0.05940613,-0.5599439,0,0,0,0,0,0,0,0,0,0,0,0,0,0,0,0,0,0,0,0,0
232,2.8029401,-0.98991597,0.08541168,-0.10566864,-0.08349596,-0.0069468557,0.0019452889,-0.017357962,-0.19108722,0,0,0,0,0,0,0,0,0,0,0,0,0,0,0,0,0,0,0,0,0
233,2.8027103,-0.98652047,0.082341954,-0.11738655,-0.1271718,-0.00801212,-0.034267012,0.0104746325,1.496376E-4,0,0,0,0,0,0,0,0,0,0,0,0,0,0,0,0,0,0,0,0,0
234,2.8023672,-0.98245454,0.07856267,-0.11312549,-0.08243069,-0.0016205335,0.059106853,-0.026635494,0.32815528,0,0,0,0,0,0,0,0,0,0,0,0,0,0,0,0,0,0,0,0,0
235,2.8019218,-0.9789288,0.07656146,-0.080102295,-0.004666391,0.012227904,0.091578215,-0.02873042,0.42901102,0,0,0,0,0,0,0,0,0,0,0,0,0,0,0,0,0,0,0,0,0
236,2.8016682,-0.9766775,0.07627465,-0.031100128,0.0070515177,5.099953E-4,0.016759412,-0.0077811554,0.38935706,0,0,0,0,0,0,0,0,0,0,0,0,0,0,0,0,0,0,0,0,0
237,2.801379,-0.97619134,0.076029785,0.010445184,-0.0014705976,0.0132931685,-0.012719196,-0.015562311,0.27727848,0,0,0,0,0,0,0,0,0,0,0,0,0,0,0,0,0,0,0,0,0
238,2.8006907,-0.9766394,0.075542554,0.023228357,0.008116783,0.01116264,0.017208325,-0.023942016,0.11207857,0,0,0,0,0,0,0,0,0,0,0,0,0,0,0,0,0,0,0,0,0
239,2.8000107,-0.97721565,0.075562,0.018967299,0.020899955,0.017554225,-0.0070329676,0.01616086,0.09172785,0,0,0,0,0,0,0,0,0,0,0,0,0,0,0,0,0,0,0,0,0
240,2.798678,-0.9780153,0.0751203,0.029619943,0.034748394,0.02075002,0.08125322,0.010923545,0.008978256,0,0,0,0,0,0,0,0,0,0,0,0,0,0,0,0,0,0,0,0,0
241,2.798061,-0.97901183,0.07537984,0.027489414,0.0059862533,0.0037057886,0.024091655,0.0175076,-0.067336924,0,0,0,0,0,0,0,0,0,0,0,0,0,0,0,0,0,0,0,0,0
242,2.7974238,-0.97991014,0.07524428,0.037076794,-0.007862184,0.017554225,-0.06688801,0.0199018,-0.018255789,0,0,0,0,0,0,0,0,0,0,0,0,0,0,0,0,0,0,0,0,0
243,2.796098,-0.98197526,0.07426169,0.05305576,0.004920989,0.019684754,0.033518825,-0.06404489,-0.25423428,0,0,0,0,0,0,0,0,0,0,0,0,0,0,0,0,0,0,0,0,0
244,2.7948124,-0.98256147,0.073851205,-0.0140558975,0.030487336,0.015423697,0.063296705,-0.030825347,-0.19078794,0,0,0,0,0,0,0,0,0,0,0,0,0,0,0,0,0,0,0,0,0
245,2.7939541,-0.982417,0.07416669,-0.0034032536,0.020899955,0.012227904,-0.0031423897,0.005985504,-0.09501988,0,0,0,0,0,0,0,0,0,0,0,0,0,0,0,0,0,0,0,0,0
246,2.7926588,-0.9828826,0.07311454,0.008314655,-0.004666391,0.023945812,0.049530048,0.020350715,-0.15607202,0,0,0,0,0,0,0,0,0,0,0,0,0,0,0,0,0,0,0,0,0
247,2.7920673,-0.9832289,0.07199646,-0.0055337823,-0.014253771,5.099953E-4,0.124049574,-0.018555064,-0.119859725,0,0,0,0,0,0,0,0,0,0,0,0,0,0,0,0,0,0,0,0,0
248,2.7923965,-0.98273295,0.071787804,-0.01406149,-0.017466342,-0.01013466,0.036361936,-0.015562311,-0.010025719,0,0,0,0,0,0,0,0,0,0,0,0,0,0,0,0,0,0,0,0,0
249,2.7925115,-0.98230726,0.07176087,-0.017257284,0.0027736824,-5.472796E-4,0.016609775,-0.010773907,-0.03815759,0,0,0,0,0,0,0,0,0,0,0,0,0,0,0,0,0,0,0,0,0
250,2.7925236,-0.9818958,0.0716817,-0.01406149,-0.0046831686,-0.0016125441,0.06688801,-0.021547815,0.05761048,0,0,0,0,0,0,0,0,0,0,0,0,0,0,0,0,0,0,0,0,0
251,2.7927601,-0.9812814,0.07134603,-0.007669904,-0.017466342,-0.0069388663,0.023792379,0.004040215,0.09636662,0,0,0,0,0,0,0,0,0,0,0,0,0,0,0,0,0,0,0,0,0
252,2.7930968,-0.98108584,0.07126435,-0.0034088462,0.008100004,-0.0026778085,0.04504092,0.01690905,0.10354923,0,0,0,0,0,0,0,0,0,0,0,0,0,0,0,0,0,0,0,0,0
253,2.7933345,-0.9810099,0.071989246,0.017896442,0.021948442,-0.005873602,0.036361936,0.0047884034,0.14170681,0,0,0,0,0,0,0,0,0,0,0,0,0,0,0,0,0,0,0,0,0
254,2.7933877,-0.98197573,0.07266421,0.042397525,0.0059694755,0.0026485138,-0.0067336923,-0.016759412,-0.0175076,0,0,0,0,0,0,0,0,0,0,0,0,0,0,0,0,0,0,0,0,0
255,2.7933528,-0.9833147,0.072958805,0.027483823,0.00703474,0.0026485138,0.023044191,-0.02184709,-0.09876082,0,0,0,0,0,0,0,0,0,0,0,0,0,0,0,0,0,0,0,0,0
256,2.792916,-0.9838013,0.07308336,0.008309063,0.013426326,0.0090401005,0.010773907,-0.020799628,-0.03127426,0,0,0,0,0,0,0,0,0,0,0,0,0,0,0,0,0,0,0,0,0
257,2.7923632,-0.9845031,0.07288878,0.021092236,-0.005748433,0.0069095716,0.0,-0.03875614,-0.0947206,0,0,0,0,0,0,0,0,0,0,0,0,0,0,0,0,0,0,0,0,0
258,2.791897,-0.98535395,0.07254976,0.009374327,-0.011074755,-0.0016125441,0.027533319,-0.01690905,-0.15218145,0,0,0,0,0,0,0,0,0,0,0,0,0,0,0,0,0,0,0,0,0
259,2.7918167,-0.98557174,0.072780326,-0.0066046393,0.012361062,-5.472796E-4,-0.020350715,-0.027682956,-0.19527708,0,0,0,0,0,0,0,0,0,0,0,0,0,0,0,0,0,0,0,0,0
260,2.7913446,-0.9853145,0.07327123,-0.027909929,0.0027736824,0.0015832493,-0.0017956513,-0.038905777,-0.12928689,0,0,0,0,0,0,0,0,0,0,0,0,0,0,0,0,0,0,0,0,0
261,2.7911556,-0.98451424,0.07283838,-0.019387813,-0.023857929,5.1798485E-4,-0.0074818805,-0.045789108,-0.025737667,0,0,0,0,0,0,0,0,0,0,0,0,0,0,0,0,0,0,0,0,0
262,2.7908633,-0.98418915,0.07156387,-0.016192019,-0.032380044,0.0026485138,0.029628245,-0.02184709,-0.019752163,0,0,0,0,0,0,0,0,0,0,0,0,0,0,0,0,0,0,0,0,0
263,2.7908733,-0.98325634,0.0712796,-0.038562573,0.015556855,-0.003743073,0.029628245,-0.0074818805,0.02932897,0,0,0,0,0,0,0,0,0,0,0,0,0,0,0,0,0,0,0,0,0
264,2.7910988,-0.98214084,0.072273664,-0.020453077,0.028340029,-0.003743073,-0.021098902,-0.007631518,0.14694414,0,0,0,0,0,0,0,0,0,0,0,0,0,0,0,0,0,0,0,0,0
265,2.7909815,-0.9820181,0.0721894,0.008316786,-0.023835558,0.0037031255,0.005087679,-0.02184709,0.09861118,0,0,0,0,0,0,0,0,0,0,0,0,0,0,0,0,0,0,0,0,0
266,2.7909346,-0.9823045,0.07080324,0.0029904635,-0.022770293,5.073322E-4,0.09127894,-0.0026934769,0.019602526,0,0,0,0,0,0,0,0,0,0,0,0,0,0,0,0,0,0,0,0,0
267,2.7913897,-0.9819176,0.07102839,8.599347E-4,0.01877502,-0.010145312,0.049679685,-0.02184709,0.15487492,0,0,0,0,0,0,0,0,0,0,0,0,0,0,0,0,0,0,0,0,0
268,2.7917707,-0.9822046,0.072206184,0.026426282,0.029427664,0.002637861,-0.039055414,-0.028431145,0.099060096,0,0,0,0,0,0,0,0,0,0,0,0,0,0,0,0,0,0,0,0,0
269,2.7914183,-0.98353535,0.07257698,0.04560104,0.023036078,0.0068989187,0.06688801,0.0031423897,-0.02813187,0,0,0,0,0,0,0,0,0,0,0,0,0,0,0,0,0,0,0,0,0
270,2.7914417,-0.98500514,0.07279948,0.040274717,-0.0014650049,-0.00481899,0.059705406,-0.008828619,-0.10474633,0,0,0,0,0,0,0,0,0,0,0,0,0,0,0,0,0,0,0,0,0
271,2.7916617,-0.9861648,0.07325339,0.02855681,0.0070571103,-0.009080048,0.03755904,0.004040215,-0.09920973,0,0,0,0,0,0,0,0,0,0,0,0,0,0,0,0,0,0,0,0,0
272,2.7919848,-0.9871873,0.07459119,0.022165224,0.017709754,-0.009080048,-0.025737667,-0.020201078,-0.175076,0,0,0,0,0,0,0,0,0,0,0,0,0,0,0,0,0,0,0,0,0
273,2.7917678,-0.9879788,0.07510023,0.011512579,0.004926582,0.002637861,-0.014963761,-0.021398177,-0.19303252,0,0,0,0,0,0,0,0,0,0,0,0,0,0,0,0,0,0,0,0,0
274,2.7917023,-0.9884148,0.074243285,0.0029904635,-0.025966087,-0.009080048,0.116418056,1.496376E-4,-0.1285387,0,0,0,0,0,0,0,0,0,0,0,0,0,0,0,0,0,0,0,0,0
275,2.7930043,-0.98827904,0.07498133,-0.016184296,-0.015313443,-0.029320072,-0.024241293,-0.029179333,-0.12823942,0,0,0,0,0,0,0,0,0,0,0,0,0,0,0,0,0,0,0,0,0
276,2.7936757,-0.98793983,0.075562194,8.599347E-4,-0.0025302693,5.073322E-4,-0.05925649,-0.08200141,-0.034267012,0,0,0,0,0,0,0,0,0,0,0,0,0,0,0,0,0,0,0,0,0
277,2.7930582,-0.98870003,0.07509115,0.007251521,-0.006791327,0.0047683897,0.018555064,0.013766659,-0.20066403,0,0,0,0,0,0,0,0,0,0,0,0,0,0,0,0,0,0,0,0,0
278,2.7933803,-0.988386,0.07499322,-0.033228528,-0.023835558,-0.02186322,0.0398036,1.496376E-4,-0.16475101,0,0,0,0,0,0,0,0,0,0,0,0,0,0,0,0,0,0,0,0,0
279,2.7945583,-0.98666716,0.075098366,-0.056664344,-0.047271375,-0.019732691,-0.11267712,-0.056563016,0.041000705,0,0,0,0,0,0,0,0,0,0,0,0,0,0,0,0,0,0,0,0,0
280,2.7945428,-0.9848891,0.07379256,-0.035359055,-0.02703135,0.013290505,-0.06718729,0.022445641,0.23253684,0,0,0,0,0,0,0,0,0,0,0,0,0,0,0,0,0,0,0,0,0
281,2.7939491,-0.9845797,0.07287391,0.0168389,0.005991846,0.011159976,0.0026934769,0.035314474,0.21203649,0,0,0,0,0,0,0,0,0,0,0,0,0,0,0,0,0,0,0,0,0
282,2.793374,-0.98508847,0.07316151,0.013635385,0.023013707,5.1798485E-4,0.050128598,-0.053869538,0.032172084,0,0,0,0,0,0,0,0,0,0,0,0,0,0,0,0,0,0,0,0,0
283,2.7933114,-0.9847307,0.073440075,-0.0012783173,-0.0014873755,0.0037137782,-0.009726444,-0.075417355,0.12075755,0,0,0,0,0,0,0,0,0,0,0,0,0,0,0,0,0,0,0,0,0
284,2.7924957,-0.9855034,0.07273498,0.059441756,0.011295797,0.014366423,0.083497785,-0.051325697,0.09726445,0,0,0,0,0,0,0,0,0,0,0,0,0,0,0,0,0,0,0,0,0
285,2.790799,-0.98871213,0.07387479,0.076485984,0.049645316,0.020758009,-0.086490534,0.014514848,-0.4103063,0,0,0,0,0,0,0,0,0,0,0,0,0,0,0,0,0,0,0,0,0
286,2.788538,-0.99074054,0.07511052,0.018961707,0.03579688,0.015431687,-0.09801263,0.07556699,-0.46297875,0,0,0,0,0,0,0,0,0,0,0,0,0,0,0,0,0,0,0,0,0
287,2.787458,-0.99120903,0.07536048,-0.009800433,-0.044097953,-5.472796E-4,-0.14110826,-0.051325697,-0.3648165,0,0,0,0,0,0,0,0,0,0,0,0,0,0,0,0,0,0,0,0,0
288,2.7859042,-0.9909415,0.07309147,-0.049215216,-0.07392535,0.031410653,-0.107739076,-0.13272856,-0.3540426,0,0,0,0,0,0,0,0,0,0,0,0,0,0,0,0,0,0,0,0,0
289,2.7828777,-0.98809546,0.06734024,-0.11739214,-0.08777379,0.058042265,0.15382746,-0.050727148,0.0019452889,0,0,0,0,0,0,0,0,0,0,0,0,0,0,0,0,0,0,0,0,0
290,2.7801096,-0.9847235,0.06182103,-0.08117315,-0.045163218,0.040998034,0.30705637,0.08334815,0.295235,0,0,0,0,0,0,0,0,0,0,0,0,0,0,0,0,0,0,0,0,0
291,2.7790856,-0.98309916,0.058974143,-0.03323625,-0.018531606,0.010105365,0.23268647,0.09172785,0.21981764,0,0,0,0,0,0,0,0,0,0,0,0,0,0,0,0,0,0,0,0,0
292,2.7793021,-0.9822053,0.058119446,-0.0066046393,0.0017084178,-0.009069395,0.15906477,0.03696049,0.18016368,0,0,0,0,0,0,0,0,0,0,0,0,0,0,0,0,0,0,0,0,0
293,2.7804415,-0.9820187,0.05852661,8.5221155E-4,-0.008944226,-0.013330453,0.07736264,-0.03067571,0.08888474,0,0,0,0,0,0,0,0,0,0,0,0,0,0,0,0,0,0,0,0,0
294,2.7813122,-0.9816187,0.058025386,-0.0034088462,-0.020662135,-0.011199924,0.10968436,-0.0175076,0.13317747,0,0,0,0,0,0,0,0,0,0,0,0,0,0,0,0,0,0,0,0,0
295,2.7825115,-0.9815283,0.05816907,0.015765913,-4.2211104E-4,-0.020787304,0.11656769,0.01316811,0.1707365,0,0,0,0,0,0,0,0,0,0,0,0,0,0,0,0,0,0,0,0,0
296,2.7842033,-0.98190475,0.059079885,0.026418557,0.02407897,-0.028244155,0.16325463,0.0055365916,0.15711948,0,0,0,0,0,0,0,0,0,0,0,0,0,0,0,0,0,0,0,0,0
297,2.786146,-0.9826923,0.061875682,0.042397525,0.037927408,-0.041027326,0.042945992,0.052223526,0.1364695,0,0,0,0,0,0,0,0,0,0,0,0,0,0,0,0,0,0,0,0,0
298,2.7881212,-0.9848038,0.06423166,0.08925584,0.0037995318,-0.03355157,-0.024091655,0.037858315,-0.021547815,0,0,0,0,0,0,0,0,0,0,0,0,0,0,0,0,0,0,0,0,0
299,2.7895367,-0.9873704,0.065709695,0.06582002,0.008060589,-0.027159981,0.059705406,0.059855044,-0.07496844,0,0,0,0,0,0,0,0,0,0,0,0,0,0,0,0,0,0,0,0,0
300,2.7912576,-0.9891862,0.06742173,0.056232646,0.012321647,-0.047400005,0.12434885,0.063895255,-0.05207389,0,0,0,0,0,0,0,0,0,0,0,0,0,0,0,0,0,0,0,0,0
301,2.7942593,-0.9908821,0.069961205,0.07434214,-0.012179434,-0.06764003,0.06599019,0.04563947,0.051475335,0,0,0,0,0,0,0,0,0,0,0,0,0,0,0,0,0,0,0,0,0
302,2.7978466,-0.9932398,0.07356264,0.12121378,-0.018571021,-0.04633474,-0.22131401,0.0073322426,0.21547815,0,0,0,0,0,0,0,0,0,0,0,0,0,0,0,0,0,0,0,0,0
303,2.7860415,-0.99876153,0.07168158,0.38859513,0.2647893,0.4916238,-1.4755764,-1.0145429,0.63162035,0,0,0,0,0,0,0,0,0,0,0,0,0,0,0,0,0,0,0,0,0
304,2.7487793,-1.0120484,0.052329842,0.3385277,0.36172837,0.71532935,-0.52747256,-0.08798691,-0.027982233,0,0,0,0,0,0,0,0,0,0,0,0,0,0,0,0,0,0,0,0,0
305,2.7145214,-1.0192078,0.028931627,0.230936,0.25520194,0.56193125,0.41838676,0.18240824,0.5979519,0,0,0,0,0,0,0,0,0,0,0,0,0,0,0,0,0,0,0,0,0
306,2.6943624,-1.0299023,0.01373292,0.44292364,0.09221648,0.24980877,0.60917467,0.31498715,0.49290627,0,0,0,0,0,0,0,0,0,0,0,0,0,0,0,0,0,0,0,0,0
307,2.688706,-1.0450208,0.006835366,0.416292,-0.08994374,-0.030355776,0.50742114,0.44547117,-0.7149685,0,0,0,0,0,0,0,0,0,0,0,0,0,0,0,0,0,0,0,0,0
308,2.6967854,-1.0541496,0.013230741,0.1712812,-0.08461741,-0.1731012,0.02873042,-0.079008654,-0.86236155,0,0,0,0,0,0,0,0,0,0,0,0,0,0,0,0,0,0,0,0,0
309,2.6981869,-1.0556487,0.009082291,-0.06946856,-0.14001116,-0.027159981,0.29912558,0.22041619,-0.47135845,0,0,0,0,0,0,0,0,0,0,0,0,0,0,0,0,0,0,0,0,0
310,2.7011461,-1.053655,0.006768436,-0.122731775,-0.23588496,-0.049530536,-0.024540568,-0.120458275,-0.3048118,0,0,0,0,0,0,0,0,0,0,0,0,0,0,0,0,0,0,0,0,0
311,2.7021713,-1.050452,-0.0016236068,-0.079055935,-0.3754346,-0.037812628,0.2124854,-0.104895964,-0.21024084,0,0,0,0,0,0,0,0,0,0,0,0,0,0,0,0,0,0,0,0,0
312,2.7022288,-1.0496264,-0.013667491,-0.0044874265,-0.38608724,0.021842182,0.008379706,0.074818805,-0.14574704,0,0,0,0,0,0,0,0,0,0,0,0,0,0,0,0,0,0,0,0,0
313,2.7019134,-1.0516304,-0.026879724,0.048775796,-0.32643244,-0.06231371,0.60453594,0.130484,-0.41808748,0,0,0,0,0,0,0,0,0,0,0,0,0,0,0,0,0,0,0,0,0
314,2.713508,-1.0519024,-0.02845129,-0.06946856,-0.28488714,-0.30412874,0.6449381,0.24450785,-0.39609075,0,0,0,0,0,0,0,0,0,0,0,0,0,0,0,0,0,0,0,0,0
315,2.7383335,-1.0497284,-0.015902216,-0.102488026,-0.29872438,-0.49907744,0.37439328,0.009876082,-0.1830068,0,0,0,0,0,0,0,0,0,0,0,0,0,0,0,0,0,0,0,0,0
316,2.7697554,-1.044831,0.004997511,-0.29956195,-0.14639157,-0.5949513,0.2605191,0.16579847,-0.5020342,0,0,0,0,0,0,0,0,0,0,0,0,0,0,0,0,0,0,0,0,0
317,2.804965,-1.0333049,0.037495837,-0.44230738,0.117794015,-0.6833682,0.17043723,-0.042347442,-0.32366616,0,0,0,0,0,0,0,0,0,0,0,0,0,0,0,0,0,0,0,0,0
318,2.8421977,-1.0179567,0.07689733,-0.42419788,0.27012682,-0.67484605,-0.38501757,-0.08664017,0.2677017,0,0,0,0,0,0,0,0,0,0,0,0,0,0,0,0,0,0,0,0,0
319,2.878298,-1.0020562,0.12354583,-0.26653874,0.4863755,-0.6982819,-0.65556234,-0.73591775,0.5969044,0,0,0,0,0,0,0,0,0,0,0,0,0,0,0,0,0,0,0,0,0
320,2.8847075,-1.0012648,0.13214615,0.1840681,-0.07288832,0.40533206,-0.64837974,0.1726818,0.64598554,0,0,0,0,0,0,0,0,0,0,0,0,0,0,0,0,0,0,0,0,0
321,2.858551,-1.0154532,0.10076878,0.5356054,-0.48514566,0.3350246,0.23014264,-0.39175126,0.22535424,0,0,0,0,0,0,0,0,0,0,0,0,0,0,0,0,0,0,0,0,0
322,2.8606315,-1.0280751,0.08291367,0.28526822,-0.7653102,-0.19334656,0.23702596,0.27069443,-0.29433718,0,0,0,0,0,0,0,0,0,0,0,0,0,0,0,0,0,0,0,0,0
323,2.8718498,-1.0343024,0.075228296,0.11695645,-0.49899408,-0.19228129,0.1316811,0.010923545,-0.71691376,0,0,0,0,0,0,0,0,0,0,0,0,0,0,0,0,0,0,0,0,0
324,2.8798845,-1.0331118,0.07675409,-0.22392817,-0.1666316,-0.18056339,0.010025719,-0.07930793,-0.6051345,0,0,0,0,0,0,0,0,0,0,0,0,0,0,0,0,0,0,0,0,0
325,2.8849385,-1.0199593,0.08284677,-0.41247997,0.031507593,-0.07616747,-0.24974516,-0.40611646,0.6218939,0,0,0,0,0,0,0,0,0,0,0,0,0,0,0,0,0,0,0,0,0
326,2.8843157,-1.0101575,0.07736549,-0.15788178,-0.3189644,0.018641062,-0.100855745,-0.014814123,0.76345104,0,0,0,0,0,0,0,0,0,0,0,0,0,0,0,0,0,0,0,0,0
327,2.8819926,-1.0140373,0.0660582,0.37155464,-0.24972221,0.1102538,0.2570774,-0.17881694,0.34685996,0,0,0,0,0,0,0,0,0,0,0,0,0,0,0,0,0,0,0,0,0
328,2.8629317,-1.0339037,0.059128672,0.79872566,0.6259251,0.41491944,-0.2657564,-0.19078794,-0.24495676,0,0,0,0,0,0,0,0,0,0,0,0,0,0,0,0,0,0,0,0,0
329,2.835663,-1.0539243,0.0631631,0.33213985,0.58651036,0.70786715,-1.442357,-0.4285621,-0.65152216,0,0,0,0,0,0,0,0,0,0,0,0,0,0,0,0,0,0,0,0,0
330,2.7843628,-1.0561738,0.029229593,-0.12485858,0.21473308,0.7696525,0.119261175,0.60229135,-0.2971803,0,0,0,0,0,0,0,0,0,0,0,0,0,0,0,0,0,0,0,0,0
331,2.7585185,-1.0543197,0.0031878236,8.4262417E-4,-0.2262864,0.23702027,0.51789576,0.775871,0.42826283,0,0,0,0,0,0,0,0,0,0,0,0,0,0,0,0,0,0,0,0,0
332,2.749725,-1.0561359,-0.013426969,0.053023536,-0.21461909,0.12199622,0.19363107,0.112976395,-0.06284779,0,0,0,0,0,0,0,0,0,0,0,0,0,0,0,0,0,0,0,0,0
333,2.7436817,-1.0568011,-0.022822665,-0.01834918,-0.0526989,0.08577722,0.044592008,-0.090381116,-0.2503437,0,0,0,0,0,0,0,0,0,0,0,0,0,0,0,0,0,0,0,0,0
334,2.738733,-1.0554111,-0.023676507,-0.10889666,0.21148668,0.086842485,-0.052822076,-0.054168813,-0.43769,0,0,0,0,0,0,0,0,0,0,0,0,0,0,0,0,0,0,0,0,0
335,2.7346816,-1.0506306,-0.021974908,-0.16215988,0.22213933,0.08471196,-0.021697452,-0.35823244,-0.16235681,0,0,0,0,0,0,0,0,0,0,0,0,0,0,0,0,0,0,0,0,0
336,2.7398381,-1.0476043,-0.008288234,-0.041784998,0.28925097,-0.20184417,0.07212532,-0.13078327,0.13856442,0,0,0,0,0,0,0,0,0,0,0,0,0,0,0,0,0,0,0,0,0
337,2.7447667,-1.0482949,0.0022063828,0.002956109,0.082589686,-0.018618692,-0.362123,0.23014264,-0.25408465,0,0,0,0,0,0,0,0,0,0,0,0,0,0,0,0,0,0,0,0,0
338,2.7435737,-1.0479594,0.0020657636,-0.07906925,0.0026948527,0.01546977,0.020949265,0.04683657,-0.5092168,0,0,0,0,0,0,0,0,0,0,0,0,0,0,0,0,0,0,0,0,0
339,2.7435472,-1.044336,0.0013825981,-0.19837886,0.009086439,-0.02074922,0.207697,0.0037409402,-0.5403414,0,0,0,0,0,0,0,0,0,0,0,0,0,0,0,0,0,0,0,0,0
340,2.7448795,-1.0370929,0.004321629,-0.27401266,0.0761981,-0.014357634,-0.015263036,0.10295067,-0.13841479,0,0,0,0,0,0,0,0,0,0,0,0,0,0,0,0,0,0,0,0,0
341,2.7451792,-1.0291728,0.005736136,-0.25377262,0.065545455,-0.0047702543,0.12779051,0.08559271,0.02184709,0,0,0,0,0,0,0,0,0,0,0,0,0,0,0,0,0,0,0,0,0
342,2.7452276,-1.0214717,0.007890361,-0.26762107,0.078328624,-0.010096576,0.093972415,0.019752163,-0.0058358666,0,0,0,0,0,0,0,0,0,0,0,0,0,0,0,0,0,0,0,0,0
343,2.7462564,-1.01322,0.008920892,-0.24205472,0.05489281,-0.010096576,0.25677812,-0.24361002,0.11387422,0,0,0,0,0,0,0,0,0,0,0,0,0,0,0,0,0,0,0,0,0
344,2.7491965,-1.0070748,0.013053755,-0.13552827,0.05489281,-0.07081665,0.062099606,-0.10818799,0.32202014,0,0,0,0,0,0,0,0,0,0,0,0,0,0,0,0,0,0,0,0,0
345,2.7525368,-1.0048089,0.016009374,-0.030067088,-0.054829426,-0.03246713,-0.10160393,-0.03696049,0.14739305,0,0,0,0,0,0,0,0,0,0,0,0,0,0,0,0,0,0,0,0,0
346,2.7530196,-1.0049604,0.014135674,-0.024740767,-0.09530947,-0.0058355187,-0.08948329,0.15457565,-0.1786673,0,0,0,0,0,0,0,0,0,0,0,0,0,0,0,0,0,0,0,0,0
347,2.7538183,-1.0024797,0.012827387,-0.11102719,-0.03885046,-0.026075542,0.06135142,0.040851068,-2.992752E-4,0,0,0,0,0,0,0,0,0,0,0,0,0,0,0,0,0,0,0,0,0
348,2.7558389,-0.99883485,0.013976698,-0.07691582,-0.040913343,-0.023977505,-0.18285716,-0.063895255,0.34955344,0,0,0,0,0,0,0,0,0,0,0,0,0,0,0,0,0,0,0,0,0
349,2.756336,-0.9983096,0.011548961,0.030675886,-0.1112208,0.014372015,-0.1038485,-0.115370594,0.19153613,0,0,0,0,0,0,0,0,0,0,0,0,0,0,0,0,0,0,0,0,0
350,2.755159,-0.9991308,0.00830355,0.013631656,-0.0057596182,0.018633073,0.12838906,-0.06823475,-0.02932897,0,0,0,0,0,0,0,0,0,0,0,0,0,0,0,0,0,0,0,0,0
351,2.755415,-0.998624,0.009097101,-0.00234731,0.024067786,-0.011194332,-4.4891282E-4,-0.021996727,0.17492636,0,0,0,0,0,0,0,0,0,0,0,0,0,0,0,0,0,0,0,0,0
352,2.7558405,-0.9987103,0.009337533,0.06369908,-0.017477527,0.006915164,-0.04504092,-0.07885902,0.413748,0,0,0,0,0,0,0,0,0,0,0,0,0,0,0,0,0,0,0,0,0
353,2.7550068,-1.0025213,0.007005261,0.18407397,-0.06434916,0.02502466,0.02558803,-0.047734395,0.23059155,0,0,0,0,0,0,0,0,0,0,0,0,0,0,0,0,0,0,0,0,0
354,2.7531533,-1.009256,0.0049715512,0.17768238,0.028328843,0.012241486,0.122852474,0.10399814,-0.34611177,0,0,0,0,0,0,0,0,0,0,0,0,0,0,0,0,0,0,0,0,0
355,2.752714,-1.0120234,0.0075931624,0.05304644,0.12420264,-0.0069332737,0.027234044,0.062698156,-0.065541275,0,0,0,0,0,0,0,0,0,0,0,0,0,0,0,0,0,0,0,0,0
356,2.7527435,-1.0143446,0.010846187,0.10311387,0.050699398,0.0026541064,-0.08334815,-0.05207389,0.019752163,0,0,0,0,0,0,0,0,0,0,0,0,0,0,0,0,0,0,0,0,0
357,2.7510645,-1.0179329,0.009411725,0.11057072,-0.048370197,0.038873095,-0.03067571,-0.004189853,-0.0676362,0,0,0,0,0,0,0,0,0,0,0,0,0,0,0,0,0,0,0,0,0
358,2.7485125,-1.0209942,0.0052258256,0.11057072,-0.048370197,0.03461204,0.16819267,0.0019452889,0.02813187,0,0,0,0,0,0,0,0,0,0,0,0,0,0,0,0,0,0,0,0,0
359,2.7467568,-1.0247967,0.0026990324,0.10630966,0.010219348,0.019698337,0.14036007,0.021398177,-0.16175826,0,0,0,0,0,0,0,0,0,0,0,0,0,0,0,0,0,0,0,0,0
360,2.745641,-1.0266305,0.0043500937,0.025349565,0.103962615,0.017567808,-0.011671733,-0.01690905,-0.14859015,0,0,0,0,0,0,0,0,0,0,0,0,0,0,0,0,0,0,0,0,0
361,2.7445304,-1.0275474,0.004931791,0.059438027,0.008088819,0.01543728,0.043394905,-0.0019452889,0.0863409,0,0,0,0,0,0,0,0,0,0,0,0,0,0,0,0,0,0,0,0,0
362,2.7441618,-1.0300418,0.0038966888,0.069025405,-0.027064906,-0.002672216,0.022595279,0.013317747,-0.14499883,0,0,0,0,0,0,0,0,0,0,0,0,0,0,0,0,0,0,0,0,0
363,2.7438664,-1.0315361,0.0042412123,0.037067473,0.045373075,0.011176222,-0.0104746325,0.014514848,-0.051325697,0,0,0,0,0,0,0,0,0,0,0,0,0,0,0,0,0,0,0,0,0
364,2.7430727,-1.0329226,0.0050666374,0.030675886,0.04430781,0.011176222,-0.00808043,-0.004638766,-0.17582418,0,0,0,0,0,0,0,0,0,0,0,0,0,0,0,0,0,0,0,0,0
365,2.7422876,-1.0336472,0.0052181976,0.016823456,0.010207896,0.009051019,0.0019452889,-0.006135142,-0.08574235,0,0,0,0,0,0,0,0,0,0,0,0,0,0,0,0,0,0,0,0,0
366,2.7416263,-1.03422,0.004616785,0.026410835,-0.018554242,-0.0016016251,0.01316811,-0.002244564,-0.0035913025,0,0,0,0,0,0,0,0,0,0,0,0,0,0,0,0,0,0,0,0,0
367,2.7416525,-1.0351906,0.0040453104,0.03493295,-0.0228153,-0.007993212,0.022296004,-0.045190558,-0.042945992,0,0,0,0,0,0,0,0,0,0,0,0,0,0,0,0,0,0,0,0,0
368,2.7414877,-1.0359931,0.0045124027,0.014692926,0.03257845,-5.3636066E-4,0.029478608,-0.022445641,-0.09920973,0,0,0,0,0,0,0,0,0,0,0,0,0,0,0,0,0,0,0,0,0
369,2.7413487,-1.036082,0.0055472846,8.444884E-4,0.034708977,-0.010123741,0.058508303,0.009427169,0.0019452889,0,0,0,0,0,0,0,0,0,0,0,0,0,0,0,0,0,0,0,0,0
370,2.7415462,-1.0366186,0.006126125,0.030671893,-0.021750037,-0.004797418,-0.0032920274,-0.047285482,-0.050128598,0,0,0,0,0,0,0,0,0,0,0,0,0,0,0,0,0,0,0,0,0
371,2.7416072,-1.0374448,0.0050933515,0.0040402818,-0.024945829,-0.013319533,0.13691841,0.039504327,-0.10070611,0,0,0,0,0,0,0,0,0,0,0,0,0,0,0,0,0,0,0,0,0
372,2.7430842,-1.0367696,0.006733933,-0.017265007,0.026186863,-0.027167972,-0.022296004,-0.008379706,0.09561843,0,0,0,0,0,0,0,0,0,0,0,0,0,0,0,0,0,0,0,0,0
373,2.7437212,-1.03724,0.008566944,0.043455064,0.026186863,-0.0026668895,-0.085293435,-0.02064999,0.028431145,0,0,0,0,0,0,0,0,0,0,0,0,0,0,0,0,0,0,0,0,0
374,2.7428472,-1.0390831,0.008375659,0.053042445,0.0038163099,0.010116284,0.0163105,-0.031573534,-0.16684593,0,0,0,0,0,0,0,0,0,0,0,0,0,0,0,0,0,0,0,0,0
375,2.7428234,-1.0404536,0.008593015,0.03280242,-0.004705806,-0.017580591,0.065092355,0.0013467384,-0.09816227,0,0,0,0,0,0,0,0,0,0,0,0,0,0,0,0,0,0,0,0,0
376,2.7433558,-1.0418534,0.009365832,0.029606627,-0.020684771,-0.021841649,-0.03067571,0.03127426,-0.23463176,0,0,0,0,0,0,0,0,0,0,0,0,0,0,0,0,0,0,0,0,0
377,2.743884,-1.0414592,0.009815573,-0.042831354,-0.0015100123,-5.3636066E-4,-0.054617725,-0.08693945,-0.1237503,0,0,0,0,0,0,0,0,0,0,0,0,0,0,0,0,0,0,0,0,0
378,2.7433095,-1.0406084,0.008128741,0.0114971325,-0.052642703,0.005855226,0.09831191,-0.036661215,0.102651395,0,0,0,0,0,0,0,0,0,0,0,0,0,0,0,0,0,0,0,0,0
379,2.7429008,-1.0422192,0.006378601,0.06156456,-0.043055326,-0.0026668895,0.06838439,0.012719196,-0.06464344,0,0,0,0,0,0,0,0,0,0,0,0,0,0,0,0,0,0,0,0,0
380,2.7428634,-1.0438526,0.0062529487,0.010431868,0.019795276,-0.015450062,0.0935235,0.0055365916,-0.2621651,0,0,0,0,0,0,0,0,0,0,0,0,0,0,0,0,0,0,0,0,0
381,2.7446492,-1.0434258,0.008193043,-0.0140692135,-0.0068363342,-0.044212203,0.044143096,-0.009277532,-0.022146367,0,0,0,0,0,0,0,0,0,0,0,0,0,0,0,0,0,0,0,0,0
382,2.747018,-1.0435469,0.01039585,0.014675882,-0.014343785,-0.03673085,-0.12075755,-0.0338181,-0.040851068,0,0,0,0,0,0,0,0,0,0,0,0,0,0,0,0,0,0,0,0,0
383,2.7475588,-1.0435894,0.012356533,-0.0034336136,0.045311023,0.0016186693,-0.15786767,-0.005087679,0.013018472,0,0,0,0,0,0,0,0,0,0,0,0,0,0,0,0,0,0,0,0,0
384,2.746438,-1.0436729,0.0128752375,0.0018927086,5.6991645E-4,0.017597636,-0.077213004,0.033668462,0.01436521,0,0,0,0,0,0,0,0,0,0,0,0,0,0,0,0,0,0,0,0,0
385,2.7456048,-1.0433813,0.010556767,-0.016216787,-0.077194385,0.005879727,0.061052144,-0.026485857,-0.008828619,0,0,0,0,0,0,0,0,0,0,0,0,0,0,0,0,0,0,0,0,0
386,2.7456121,-1.0421289,0.00795668,-0.014086258,-0.060150158,0.005879727,0.04369418,-0.1038485,0.27982232,0,0,0,0,0,0,0,0,0,0,0,0,0,0,0,0,0,0,0,0,0
387,2.744799,-1.0425857,0.006500068,0.054090664,0.016548883,0.026119752,0.024540568,-0.032022446,0.22236149,0,0,0,0,0,0,0,0,0,0,0,0,0,0,0,0,0,0,0,0,0
388,2.7425547,-1.0450176,0.0051378314,0.08178754,0.046376288,0.027185015,0.13661914,0.043544542,-0.021398177,0,0,0,0,0,0,0,0,0,0,0,0,0,0,0,0,0,0,0,0,0
389,2.7421854,-1.0474943,0.0058974884,0.060482252,0.03039732,-0.020751884,0.14230536,-0.008230069,-0.19168578,0,0,0,0,0,0,0,0,0,0,0,0,0,0,0,0,0,0,0,0,0
390,2.7439127,-1.0487927,0.009614866,0.027459055,0.06874684,-0.03673085,-0.023792379,-0.09756372,-0.11776479,0,0,0,0,0,0,0,0,0,0,0,0,0,0,0,0,0,0,0,0,0
391,2.7445233,-1.0497147,0.012547485,0.03278538,0.05702893,5.5340485E-4,-0.10040683,-0.030526072,-0.13213001,0,0,0,0,0,0,0,0,0,0,0,0,0,0,0,0,0,0,0,0,0
392,2.7432597,-1.0514836,0.012668131,0.056221195,0.015483619,0.019728165,0.031423897,0.042347442,-0.14155717,0,0,0,0,0,0,0,0,0,0,0,0,0,0,0,0,0,0,0,0,0
393,2.7417452,-1.0531672,0.011084215,0.034915905,-0.01753958,0.012271314,0.1316811,0.053869538,-0.16145898,0,0,0,0,0,0,0,0,0,0,0,0,0,0,0,0,0,0,0,0,0
394,2.7410443,-1.0540844,0.009509156,0.013610617,-0.0047564055,-0.001577124,0.1949778,0.0537199,-0.17043723,0,0,0,0,0,0,0,0,0,0,0,0,0,0,0,0,0,0,0,0,0
395,2.7420335,-1.0543127,0.010202687,-2.3782028E-4,-0.00582167,-0.035665587,0.112377845,0.03935469,-0.07227496,0,0,0,0,0,0,0,0,0,0,0,0,0,0,0,0,0,0,0,0,0
396,2.7442589,-1.0543578,0.011732476,0.005088502,-0.02499643,-0.04205717,0.0067336923,-0.06359598,-0.073621705,0,0,0,0,0,0,0,0,0,0,0,0,0,0,0,0,0,0,0,0,0
397,2.7461364,-1.054828,0.012709024,0.020002203,-0.035649072,-0.03140453,-0.018704701,-0.06718729,-0.058209028,0,0,0,0,0,0,0,0,0,0,0,0,0,0,0,0,0,0,0,0,0
398,2.747544,-1.0556118,0.013817813,0.024280306,-0.020684771,-0.03142903,-0.04743512,-0.040851068,-0.058209028,0,0,0,0,0,0,0,0,0,0,0,0,0,0,0,0,0,0,0,0,0
399,2.7496848,-1.0559729,0.015886048,-0.006612363,6.2051654E-4,-0.04847326,-0.051774614,-0.02124854,-0.10235212,0,0,0,0,0,0,0,0,0,0,0,0,0,0,0,0,0,0,0,0,0
400,2.7518222,-1.0553106,0.018657867,-0.0204608,0.022991069,-0.03142903,-0.056712653,-0.047584757,0.012868834,0,0,0,0,0,0,0,0,0,0,0,0,0,0,0,0,0,0,0,0,0
401,2.7529216,-1.0544295,0.020840982,0.0029750173,0.007012103,-0.013319533,-0.111779295,-0.048632223,0.22490533,0,0,0,0,0,0,0,0,0,0,0,0,0,0,0,0,0,0,0,0,0
402,2.7526665,-1.05535,0.019962233,0.05410771,-0.052642703,0.009051019,-0.032770637,-0.021098902,0.112377845,0,0,0,0,0,0,0,0,0,0,0,0,0,0,0,0,0,0,0,0,0
403,2.7519302,-1.0568643,0.01864087,0.028541364,0.015534218,-0.006927947,0.13227965,0.020799628,-0.099658646,0,0,0,0,0,0,0,0,0,0,0,0,0,0,0,0,0,0,0,0,0
404,2.75299,-1.0565945,0.021206435,-0.0012860405,0.04749215,-0.01971112,-0.024091655,-0.08020575,0.10803835,0,0,0,0,0,0,0,0,0,0,0,0,0,0,0,0,0,0,0,0,0
405,2.7538447,-1.0573397,0.02347023,0.06262983,0.017664747,-0.009058476,-0.104297414,-0.06718729,0.12389994,0,0,0,0,0,0,0,0,0,0,0,0,0,0,0,0,0,0,0,0,0
406,2.7524815,-1.0603846,0.023233708,0.09671829,0.008077367,0.019703664,-0.025288755,0.015412673,-0.11911154,0,0,0,0,0,0,0,0,0,0,0,0,0,0,0,0,0,0,0,0,0
407,2.7511868,-1.0629683,0.023250699,0.04025927,0.029382655,5.289038E-4,0.046537295,-2.992752E-4,-0.32471362,0,0,0,0,0,0,0,0,0,0,0,0,0,0,0,0,0,0,0,0,0
408,2.7514255,-1.0630126,0.025155097,0.005105546,0.011273161,-0.01225427,-0.11133038,-0.035314474,4.4891282E-4,0,0,0,0,0,0,0,0,0,0,0,0,0,0,0,0,0,0,0,0,0
409,2.7502396,-1.0645144,0.024947979,0.05836877,-0.020684771,0.021834193,-0.1467945,-0.026036944,-0.10639234,0,0,0,0,0,0,0,0,0,0,0,0,0,0,0,0,0,0,0,0,0
410,2.7474241,-1.0666884,0.023321282,0.035998214,0.012338425,0.038878422,-0.03187281,-0.0104746325,-0.3458125,0,0,0,0,0,0,0,0,0,0,0,0,0,0,0,0,0,0,0,0,0
411,2.7444541,-1.0675213,0.021828044,-0.0076776273,0.011273161,0.02822578,0.07676409,-0.05267244,-0.3274071,0,0,0,0,0,0,0,0,0,0,0,0,0,0,0,0,0,0,0,0,0
412,2.7427533,-1.067057,0.02018793,-0.03963556,-0.038794268,0.015442606,0.021398177,-0.05955577,-0.23897126,0,0,0,0,0,0,0,0,0,0,0,0,0,0,0,0,0,0,0,0,0
413,2.741046,-1.065862,0.017796725,-0.042831354,-0.0057710703,0.027160514,0.04743512,-0.027084406,-0.10190321,0,0,0,0,0,0,0,0,0,0,0,0,0,0,0,0,0,0,0,0,0
414,2.7388737,-1.0647956,0.015550045,-0.03750503,0.017664747,0.023964722,0.20066403,-0.010324995,-0.07796119,0,0,0,0,0,0,0,0,0,0,0,0,0,0,0,0,0,0,0,0,0
415,2.7385926,-1.0635681,0.014624582,-0.051349472,-0.019608056,-0.012259862,0.17163433,0.004638766,-0.10908581,0,0,0,0,0,0,0,0,0,0,0,0,0,0,0,0,0,0,0,0,0
416,2.7397022,-1.0618508,0.014610406,-0.04069683,-0.035587024,-0.015455655,0.010923545,-0.03232172,0.1340753,0,0,0,0,0,0,0,0,0,0,0,0,0,0,0,0,0,0,0,0,0
417,2.7403011,-1.0610204,0.014420714,-0.010869426,-0.02067332,-0.005868275,-0.022445641,-0.042796355,0.097862996,0,0,0,0,0,0,0,0,0,0,0,0,0,0,0,0,0,0,0,0,0
418,2.7406285,-1.0602818,0.015146356,-0.02152207,0.0016972326,-0.002672482,-0.13018471,-0.053570263,0.07392098,0,0,0,0,0,0,0,0,0,0,0,0,0,0,0,0,0,0,0,0,0
419,2.740249,-1.0596533,0.015392281,-0.0055431034,-0.007890147,0.014371749,-0.14903906,-0.027533319,0.12090719,0,0,0,0,0,0,0,0,0,0,0,0,0,0,0,0,0,0,0,0,0
420,2.738769,-1.0602065,0.014259462,0.025349565,-0.014281734,0.018632807,-0.10998364,-0.03441665,-0.06628946,0,0,0,0,0,0,0,0,0,0,0,0,0,0,0,0,0,0,0,0,0
421,2.7368603,-1.0612942,0.014610445,-0.009804161,0.048568867,0.030350715,-0.21996728,-0.123451024,-0.40656537,0,0,0,0,0,0,0,0,0,0,0,0,0,0,0,0,0,0,0,0,0
422,2.7345898,-1.0588075,0.015559176,-0.12059166,0.11355,0.044199154,-0.12419921,-0.12704232,-0.072574235,0,0,0,0,0,0,0,0,0,0,0,0,0,0,0,0,0,0,0,0,0
423,2.7321124,-1.0550588,0.016077032,-0.051349472,0.08372259,0.06017812,-0.09427169,-0.112976395,0.4373907,0,0,0,0,0,0,0,0,0,0,0,0,0,0,0,0,0,0,0,0,0
424,2.7273893,-1.0555309,0.012187251,0.042393796,-0.004694354,0.08680973,0.08843583,0.042945992,0.08140286,0,0,0,0,0,0,0,0,0,0,0,0,0,0,0,0,0,0,0,0,0
425,2.7232494,-1.0569502,0.0073473863,0.029610623,-0.014281734,0.06443918,0.08544307,0.060303956,-0.09920973,0,0,0,0,0,0,0,0,0,0,0,0,0,0,0,0,0,0,0,0,0
426,2.719628,-1.0576779,0.0043429905,0.015762186,0.041112017,0.05804759,0.1237503,0.043544542,-0.08364742,0,0,0,0,0,0,0,0,0,0,0,0,0,0,0,0,0,0,0,0,0
427,2.7166154,-1.058471,0.0021058398,0.015762186,0.019806728,0.049525473,0.10235212,-0.019003976,-0.14544775,0,0,0,0,0,0,0,0,0,0,0,0,0,0,0,0,0,0,0,0,0
428,2.7139838,-1.0587085,-0.001152304,-0.012999955,-0.0014985608,0.049525473,0.13946225,-0.029179333,-0.1690905,0,0,0,0,0,0,0,0,0,0,0,0,0,0,0,0,0,0,0,0,0
429,2.7121108,-1.0580158,-0.0033489622,-0.038566303,0.024067786,0.026089657,0.14993688,0.0028431145,-0.100855745,0,0,0,0,0,0,0,0,0,0,0,0,0,0,0,0,0,0,0,0,0
430,2.7113101,-1.0567254,-0.004013269,-0.038566303,0.021937257,0.013306485,0.12599486,-0.07975684,0.012868834,0,0,0,0,0,0,0,0,0,0,0,0,0,0,0,0,0,0,0,0,0
431,2.7106376,-1.05552,-0.0051994203,-0.01193469,-0.0036290896,0.025024394,0.093373865,-0.020350715,0.16759412,0,0,0,0,0,0,0,0,0,0,0,0,0,0,0,0,0,0,0,0,0
432,2.7092063,-1.0562812,-0.007225267,0.031721976,-0.011142134,0.015464177,0.17088614,0.0664391,-0.028880058,0,0,0,0,0,0,0,0,0,0,0,0,0,0,0,0,0,0,0,0,0
433,2.708621,-1.0571326,-0.007785023,-2.3595607E-4,0.012293684,-0.004775847,0.09382278,0.050427873,-0.17537527,0,0,0,0,0,0,0,0,0,0,0,0,0,0,0,0,0,0,0,0,0
434,2.7095795,-1.0562435,-0.0065120216,-0.03432442,0.014424213,-0.010102169,-0.024690205,-0.026186582,0.047285482,0,0,0,0,0,0,0,0,0,0,0,0,0,0,0,0,0,0,0,0,0
435,2.7100804,-1.0554243,-0.00651829,8.2930835E-4,-0.022860043,-5.14789E-4,5.985504E-4,-0.041449618,0.15307927,0,0,0,0,0,0,0,0,0,0,0,0,0,0,0,0,0,0,0,0,0
436,2.70977,-1.056206,-0.007671468,0.02746092,-0.0271211,0.008007326,-0.009277532,-0.036511578,-0.038606502,0,0,0,0,0,0,0,0,0,0,0,0,0,0,0,0,0,0,0,0,0
437,2.7094908,-1.0564923,-0.00865027,0.0029598372,-0.0015547534,0.0016157398,0.06060323,-0.02184709,-0.008828619,0,0,0,0,0,0,0,0,0,0,0,0,0,0,0,0,0,0,0,0,0
438,2.7098868,-1.0567048,-0.00746434,0.016808275,0.024011593,-0.004775847,-0.03755904,-0.085293435,-0.0016460137,0,0,0,0,0,0,0,0,0,0,0,0,0,0,0,0,0,0,0,0,0
439,2.7097037,-1.0575385,-0.0070698843,0.033852506,-0.0036852823,0.013333648,-0.09262568,-0.06868366,-0.063895255,0,0,0,0,0,0,0,0,0,0,0,0,0,0,0,0,0,0,0,0,0
440,2.7085416,-1.058841,-0.008126239,0.02746092,-0.0015547534,0.012268384,0.0019452889,0.042347442,-0.17357962,0,0,0,0,0,0,0,0,0,0,0,0,0,0,0,0,0,0,0,0,0
441,2.707927,-1.0595062,-0.008338894,-0.011953865,0.0080326265,5.504754E-4,-0.009427169,-0.05267244,-0.24450785,0,0,0,0,0,0,0,0,0,0,0,0,0,0,0,0,0,0,0,0,0
442,2.7077467,-1.0580873,-0.0076941373,-0.053499177,0.014424213,0.017594706,-0.10280103,-0.010773907,-2.992752E-4,0,0,0,0,0,0,0,0,0,0,0,0,0,0,0,0,0,0,0,0,0
443,2.7059588,-1.0575444,-0.009507213,0.007220895,-0.01753372,0.031443145,-0.005087679,0.037858315,0.0032920274,0,0,0,0,0,0,0,0,0,0,0,0,0,0,0,0,0,0,0,0,0
444,2.7042477,-1.0577426,-0.011506387,-0.01301913,0.0027063042,0.025051557,0.0398036,-0.054468088,-0.15412673,0,0,0,0,0,0,0,0,0,0,0,0,0,0,0,0,0,0,0,0,0
445,2.7032757,-1.0561332,-0.012892414,-0.050303385,0.012293684,0.023986293,0.102052845,-0.09591771,0.06060323,0,0,0,0,0,0,0,0,0,0,0,0,0,0,0,0,0,0,0,0,0
446,2.703012,-1.0547836,-0.013741076,-0.007692807,0.0016410399,0.01652944,0.084096335,-0.034865562,0.25932196,0,0,0,0,0,0,0,0,0,0,0,0,0,0,0,0,0,0,0,0,0
447,2.702347,-1.0555826,-0.015274163,0.045570415,-0.00794634,0.017594706,0.10115502,0.03815759,0.068534024,0,0,0,0,0,0,0,0,0,0,0,0,0,0,0,0,0,0,0,0,0
448,2.702148,-1.0565426,-0.016637167,0.03491777,-0.00794634,0.010137855,0.1539771,-0.011372458,-0.03606266,0,0,0,0,0,0,0,0,0,0,0,0,0,0,0,0,0,0,0,0,0
449,2.702884,-1.0570658,-0.016399315,0.008290154,0.026153307,-0.013303288,0.12389994,0.005087679,0.009127894,0,0,0,0,0,0,0,0,0,0,0,0,0,0,0,0,0,0,0,0,0
450,2.7041428,-1.0576879,-0.0143165905,0.030660708,0.041067008,-0.016499082,0.019752163,-0.032022446,-0.042347442,0,0,0,0,0,0,0,0,0,0,0,0,0,0,0,0,0,0,0,0,0
451,2.7048926,-1.0590836,-0.013325273,0.045574408,-0.017522534,-0.006911702,0.001496376,-0.042048167,-0.1455974,0,0,0,0,0,0,0,0,0,0,0,0,0,0,0,0,0,0,0,0,0
452,2.7046578,-1.0608234,-0.014840476,0.04131335,-0.039893087,0.0016104135,0.092775315,0.055365913,-0.17597382,0,0,0,0,0,0,0,0,0,0,0,0,0,0,0,0,0,0,0,0,0
453,2.7057836,-1.0611993,-0.014698109,-0.0055582835,0.010174341,-0.029282255,0.10729016,0.0199018,-0.07047931,0,0,0,0,0,0,0,0,0,0,0,0,0,0,0,0,0,0,0,0,0
454,2.7080832,-1.0613707,-0.012582657,0.020008063,-0.005804626,-0.036739107,-0.006434417,-0.041150343,0.0013467384,0,0,0,0,0,0,0,0,0,0,0,0,0,0,0,0,0,0,0,0,0
455,2.7098794,-1.0622654,-0.0113870585,0.021073326,-0.024979386,-0.022890668,-0.066738375,-0.020799628,-0.13198037,0,0,0,0,0,0,0,0,0,0,0,0,0,0,0,0,0,0,0,0,0
456,2.7109816,-1.0624242,-0.010660407,0.0040290966,-0.0036740971,-0.014368553,-0.03127426,-0.061052144,-0.03935469,0,0,0,0,0,0,0,0,0,0,0,0,0,0,0,0,0,0,0,0,0
457,2.7117782,-1.0629973,-0.009359202,0.013616476,0.0027174896,-0.013303288,-0.12315175,-0.031423897,-0.11192893,0,0,0,0,0,0,0,0,0,0,0,0,0,0,0,0,0,0,0,0,0
458,2.7122576,-1.0631745,-0.008828493,-2.3196133E-4,-0.0047393613,-0.0058464375,-0.058508303,-0.043394905,-0.11552023,0,0,0,0,0,0,0,0,0,0,0,0,0,0,0,0,0,0,0,0,0
459,2.7123535,-1.0630448,-0.0087825395,-0.0055582835,-0.014326741,5.451491E-4,-0.051774614,-0.015562311,-0.005087679,0,0,0,0,0,0,0,0,0,0,0,0,0,0,0,0,0,0,0,0,0
460,2.711872,-1.063466,-0.0095082205,0.013616476,-0.0068698903,0.010132529,-0.006584055,-0.038307227,-0.121056825,0,0,0,0,0,0,0,0,0,0,0,0,0,0,0,0,0,0,0,0,0
461,2.7111006,-1.0635668,-0.01021697,-0.016210929,0.006978547,0.010132529,0.045789108,-0.015711948,-0.09831191,0,0,0,0,0,0,0,0,0,0,0,0,0,0,0,0,0,0,0,0,0
462,2.7110891,-1.0631421,-0.010454151,-0.02153725,-0.0047393613,-0.0058464375,0.07930793,0.027383681,-0.033668462,0,0,0,0,0,0,0,0,0,0,0,0,0,0,0,0,0,0,0,0,0
463,2.7120848,-1.0623543,-0.010386601,-0.015145663,-0.02604465,-0.015433817,0.050278235,-0.009277532,0.0947206,0,0,0,0,0,0,0,0,0,0,0,0,0,0,0,0,0,0,0,0,0
464,2.7125075,-1.0623524,-0.010333823,0.018942798,-0.007935155,0.005871471,-0.04444237,-0.04997896,0.040402155,0,0,0,0,0,0,0,0,0,0,0,0,0,0,0,0,0,0,0,0,0
465,2.712053,-1.0627224,-0.011545556,-0.0076888124,-0.010065683,0.0026756779,0.07975684,0.020949265,-0.059855044,0,0,0,0,0,0,0,0,0,0,0,0,0,0,0,0,0,0,0,0,0
466,2.7128885,-1.0619802,-0.012078476,-0.004493019,-0.0132614765,-0.017564347,0.1479916,0.002992752,0.1604115,0,0,0,0,0,0,0,0,0,0,0,0,0,0,0,0,0,0,0,0,0
467,2.71439,-1.0626731,-0.010369164,0.0338565,0.02189225,-0.02076014,-0.043544542,-0.021996727,-0.03696049,0,0,0,0,0,0,0,0,0,0,0,0,0,0,0,0,0,0,0,0,0
468,2.7146478,-1.0637004,-0.009566162,0.016812269,0.0059132827,0.0016104135,-0.0062847794,0.012120646,-0.15068507,0,0,0,0,0,0,0,0,0,0,0,0,0,0,0,0,0,0,0,0,0
469,2.7151062,-1.0641515,-0.010239924,0.0072248895,-0.04308888,-0.015433817,0.04309563,-0.006584055,-0.13063364,0,0,0,0,0,0,0,0,0,0,0,0,0,0,0,0,0,0,0,0,0
470,2.7165737,-1.0643322,-0.010199887,0.012551212,-0.021783592,-0.023955932,0.049081136,-0.050876785,-0.07317279,0,0,0,0,0,0,0,0,0,0,0,0,0,0,0,0,0,0,0,0,0
471,2.7178845,-1.0646936,-0.0090365065,0.009355418,-0.005804626,-0.016499082,-0.06254852,-0.045340195,-0.029478608,0,0,0,0,0,0,0,0,0,0,0,0,0,0,0,0,0,0,0,0,0
472,2.7185566,-1.0651019,-0.008407819,0.008290154,-0.02604465,-0.0058464375,-0.116418056,-0.01690905,-0.052971713,0,0,0,0,0,0,0,0,0,0,0,0,0,0,0,0,0,0,0,0,0
473,2.7183566,-1.0655049,-0.0093129035,0.011485947,-0.042023618,0.012263058,-0.10295067,-0.045789108,-0.0724246,0,0,0,0,0,0,0,0,0,0,0,0,0,0,0,0,0,0,0,0,0
474,2.717636,-1.0660423,-0.010708894,0.0029638319,-0.023914121,5.451491E-4,0.0,-0.046986207,-0.16819267,0,0,0,0,0,0,0,0,0,0,0,0,0,0,0,0,0,0,0,0,0
475,2.7179677,-1.0651885,-0.010144856,-0.036450952,0.011239605,0.0048062066,-0.100257196,-0.11312603,-0.019602526,0,0,0,0,0,0,0,0,0,0,0,0,0,0,0,0,0,0,0,0,0
476,2.7168624,-1.0640618,-0.011350521,-0.006623548,-0.020718329,0.03676414,-0.029179333,-0.058209028,0.15412673,0,0,0,0,0,0,0,0,0,0,0,0,0,0,0,0,0,0,0,0,0
477,2.714461,-1.0646921,-0.015540062,0.030660708,-0.03563203,0.0410252,0.14320318,0.05701193,0.034117375,0,0,0,0,0,0,0,0,0,0,0,0,0,0,0,0,0,0,0,0,0
478,2.7133665,-1.0650401,-0.018508658,-0.004493019,-0.009000419,0.0048062066,0.3119944,0.072574235,-0.05925649,0,0,0,0,0,0,0,0,0,0,0,0,0,0,0,0,0,0,0,0,0
479,2.714423,-1.0646162,-0.01849347,0.005094361,0.010174341,-0.016499082,0.17732057,0.015412673,0.1455974,0,0,0,0,0,0,0,0,0,0,0,0,0,0,0,0,0,0,0,0,0
480,2.7153647,-1.0657053,-0.018212011,0.04131335,0.011239605,-0.019694876,0.18659809,0.0104746325,-0.1273416,0,0,0,0,0,0,0,0,0,0,0,0,0,0,0,0,0,0,0,0,0
481,2.7173526,-1.0664622,-0.017198674,-2.3196133E-4,-0.021783592,-0.034608576,0.17761984,0.013617022,-0.101454295,0,0,0,0,0,0,0,0,0,0,0,0,0,0,0,0,0,0,0,0,0
482,2.7203958,-1.0665994,-0.016642464,0.02639965,-0.05906785,-0.052718073,0.15128362,0.006434417,0.09367314,0,0,0,0,0,0,0,0,0,0,0,0,0,0,0,0,0,0,0,0,0
483,2.723459,-1.0677739,-0.0152924135,0.027464913,-0.021783592,-0.055913866,0.10414778,0.051774614,-0.049679685,0,0,0,0,0,0,0,0,0,0,0,0,0,0,0,0,0,0,0,0,0
484,2.727444,-1.0682627,-0.01221972,0.015747005,-0.02604465,-0.0729581,0.02184709,0.018704701,-0.009876082,0,0,0,0,0,0,0,0,0,0,0,0,0,0,0,0,0,0,0,0,0
485,2.732123,-1.0688516,-0.008735347,0.018942798,-0.047349937,-0.07615389,-0.09546879,-0.031573534,-0.052971713,0,0,0,0,0,0,0,0,0,0,0,0,0,0,0,0,0,0,0,0,0
486,2.7357779,-1.0695497,-0.0060340595,0.029595442,-0.0185878,-0.05697913,-0.066738375,-0.047285482,-0.027682956,0,0,0,0,0,0,0,0,0,0,0,0,0,0,0,0,0,0,0,0,0
487,2.7386966,-1.0707582,-0.002689026,0.038117558,-0.01645727,-0.051652808,-0.15412673,-0.05746084,-0.04189853,0,0,0,0,0,0,0,0,0,0,0,0,0,0,0,0,0,0,0,0,0
488,2.7405138,-1.0721475,-9.7458606E-4,0.025334384,-0.042023618,-0.034608576,-0.13183074,-0.029478608,-0.1770213,0,0,0,0,0,0,0,0,0,0,0,0,0,0,0,0,0,0,0,0,0
489,2.7424834,-1.0719974,5.055086E-4,-0.019406721,-0.0132614765,-0.046326485,-0.009726444,-0.08215105,-0.03935469,0,0,0,0,0,0,0,0,0,0,0,0,0,0,0,0,0,0,0,0,0
490,2.7451255,-1.0713655,0.0038019987,0.013616476,0.010174341,-0.043130692,-0.13512276,-0.111779295,0.14664486,0,0,0,0,0,0,0,0,0,0,0,0,0,0,0,0,0,0,0,0,0
491,2.7454126,-1.0730314,0.0056397505,0.06261864,0.020826984,0.0026756779,-0.15786767,0.0031423897,-0.061650693,0,0,0,0,0,0,0,0,0,0,0,0,0,0,0,0,0,0,0,0,0
492,2.744585,-1.074687,0.0058744047,0.032791235,-0.015392005,-0.00904223,-0.055964466,0.014664485,-0.18599954,0,0,0,0,0,0,0,0,0,0,0,0,0,0,0,0,0,0,0,0,0
493,2.7454357,-1.0750914,0.007259368,-0.014080399,0.003782754,-0.017564347,-0.15966332,-0.07631518,-0.18390462,0,0,0,0,0,0,0,0,0,0,0,0,0,0,0,0,0,0,0,0,0
494,2.7452383,-1.074217,0.0082843,-0.019406721,0.01976172,0.016524116,-0.15248072,-0.0676362,0.038456865,0,0,0,0,0,0,0,0,0,0,0,0,0,0,0,0,0,0,0,0,0
495,2.7435038,-1.0743335,0.007076755,0.013616476,-0.0068698903,0.026111495,-0.047135845,-0.0017956513,-0.022595279,0,0,0,0,0,0,0,0,0,0,0,0,0,0,0,0,0,0,0,0,0
496,2.7416384,-1.0748132,0.0056449724,-0.0076888124,0.022957513,0.026111495,0.022595279,-0.004489128,-0.163105,0,0,0,0,0,0,0,0,0,0,0,0,0,0,0,0,0,0,0,0,0
497,2.7405825,-1.0736126,0.0051539605,-0.035385687,0.027218571,0.014393587,0.06943185,-0.014065935,0.08454525,0,0,0,0,0,0,0,0,0,0,0,0,0,0,0,0,0,0,0,0,0
498,2.7401407,-1.073174,0.004717088,0.022138592,-0.0047393613,0.018654644,0.037110128,-0.08828619,0.1731307,0,0,0,0,0,0,0,0,0,0,0,0,0,0,0,0,0,0,0,0,0
499,2.7380662,-1.0748606,0.002186712,0.030679615,-4.2211104E-4,0.026084332,0.121056825,-0.017657237,-0.1842039,0,0,0,0,0,0,0,0,0,0,0,0,0,0,0,0,0,0,0,0,0
500,2.7370462,-1.0748948,0.0012905633,-0.0151267545,0.045384258,0.0069095716,0.17342998,0.022146367,-0.041000705,0,0,0,0,0,0,0,0,0,0,0,0,0,0,0,0,0,0,0,0,0
501,2.7376893,-1.074761,0.0027052816,0.0040480047,0.01662212,-0.016526246,0.030974984,0.025737667,-0.008678981,0,0,0,0,0,0,0,0,0,0,0,0,0,0,0,0,0,0,0,0,0
502,2.7380648,-1.0755961,0.0032169516,0.029614352,-4.2211104E-4,0.0026485138,0.014963761,-0.017058687,-0.107140526,0,0,0,0,0,0,0,0,0,0,0,0,0,0,0,0,0,0,0,0,0
503,2.737689,-1.0764555,0.0023962536,0.0104395915,-0.019596871,-0.0016125441,0.06419453,0.015562311,-0.13227965,0,0,0,0,0,0,0,0,0,0,0,0,0,0,0,0,0,0,0,0,0
504,2.7382839,-1.0767926,0.0022773882,-0.009800433,-0.011074755,-0.020787304,0.054767363,0.014514848,-0.15831658,0,0,0,0,0,0,0,0,0,0,0,0,0,0,0,0,0,0,0,0,0
505,2.739837,-1.0756744,0.004040221,-0.022583606,0.008100004,-0.013330453,-0.09367314,-0.07885902,0.09307459,0,0,0,0,0,0,0,0,0,0,0,0,0,0,0,0,0,0,0,0,0
506,2.739801,-1.0757787,0.003874918,0.026418557,-0.015335813,0.0047790427,-0.041748893,-0.09382278,0.050727148,0,0,0,0,0,0,0,0,0,0,0,0,0,0,0,0,0,0,0,0,0
507,2.7390845,-1.0770319,0.0034796952,0.025353294,0.019817913,0.007974836,-0.004489128,-0.037110128,-0.2570774,0,0,0,0,0,0,0,0,0,0,0,0,0,0,0,0,0,0,0,0,0
508,2.7389376,-1.0773803,0.004340792,-0.020453077,0.017687384,-0.011199924,-0.0020949265,-0.009576807,-0.17687166,0,0,0,0,0,0,0,0,0,0,0,0,0,0,0,0,0,0,0,0,0
509,2.7403882,-1.0759361,0.0047503966,-0.018322548,-0.04090216,-0.015460982,-0.0052373162,-0.061501056,0.13482349,0,0,0,0,0,0,0,0,0,0,0,0,0,0,0,0,0,0,0,0,0
510,2.7408524,-1.0764171,0.004371848,0.042397525,-0.022792663,0.007974836,-0.11447277,-0.03995324,0.06599019,0,0,0,0,0,0,0,0,0,0,0,0,0,0,0,0,0,0,0,0,0
511,2.739385,-1.077726,0.0034201392,0.034940675,0.030470558,0.02821486,-7.48188E-4,0.10130466,-0.12794015,0,0,0,0,0,0,0,0,0,0,0,0,0,0,0,0,0,0,0,0,0
512,2.73851,-1.0782135,0.0033301963,-0.007669904,0.0017084178,-0.01013466,0.051624972,0.03815759,-0.03755904,0,0,0,0,0,0,0,0,0,0,0,0,0,0,0,0,0,0,0,0,0
513,2.739025,-1.0781087,0.0032179682,0.013635385,-0.02918425,0.007974836,-0.07691373,-0.024540568,0.07571663,0,0,0,0,0,0,0,0,0,0,0,0,0,0,0,0,0,0,0,0,0
514,2.7373517,-1.079283,0.0015907392,0.032810144,0.025144236,0.03034539,0.052223526,-0.037110128,-0.10070611,0,0,0,0,0,0,0,0,0,0,0,0,0,0,0,0,0,0,0,0,0
515,2.7357192,-1.0799186,0.0010591011,0.001902296,0.036817137,0.0154532585,0.08693945,-0.016759412,-0.13183074,0,0,0,0,0,0,0,0,0,0,0,0,0,0,0,0,0,0,0,0,0
516,2.7351255,-1.0800587,0.001049959,-0.0023587618,0.013381319,0.0037353497,0.04563947,-0.015861586,-0.08304887,0,0,0,0,0,0,0,0,0,0,0,0,0,0,0,0,0,0,0,0,0
517,2.7348492,-1.0801479,8.252521E-4,0.0061633536,0.0069897324,0.0058658784,0.011522096,-0.06075287,-0.07571663,0,0,0,0,0,0,0,0,0,0,0,0,0,0,0,0,0,0,0,0,0
518,2.7338998,-1.0803632,3.843288E-4,-0.013011406,0.027229756,0.01332273,0.06299743,-0.029628245,-0.1643021,0,0,0,0,0,0,0,0,0,0,0,0,0,0,0,0,0,0,0,0,0
519,2.7339158,-1.0798341,7.4966706E-4,-0.031120902,0.008054997,-0.009047823,0.06284779,-0.018405426,-0.100855745,0,0,0,0,0,0,0,0,0,0,0,0,0,0,0,0,0,0,0,0,0
520,2.7347493,-1.0790267,0.0012174227,-0.0044892905,-0.021772407,-5.25708E-4,-0.07706337,-0.02124854,0.02873042,0,0,0,0,0,0,0,0,0,0,0,0,0,0,0,0,0,0,0,0,0
521,2.7345195,-1.079286,7.3231064E-4,0.01255494,-0.014315556,0.0058658784,-0.019452889,-0.012719196,-0.048033673,0,0,0,0,0,0,0,0,0,0,0,0,0,0,0,0,0,0,0,0,0
522,2.7338645,-1.0796553,-5.3629855E-4,-0.019402992,-0.021772407,0.0058658784,0.07152677,0.020799628,-0.2347814,0,0,0,0,0,0,0,0,0,0,0,0,0,0,0,0,0,0,0,0,0
523,2.7342687,-1.0779786,-0.001705559,-0.032186165,-0.026033465,-0.009047823,0.119859725,-0.012120646,0.11372458,0,0,0,0,0,0,0,0,0,0,0,0,0,0,0,0,0,0,0,0,0
524,2.7345986,-1.0777044,-0.0026203175,0.009359147,-0.047338754,-0.0069172946,0.10100538,-1.496376E-4,0.06808511,0,0,0,0,0,0,0,0,0,0,0,0,0,0,0,0,0,0,0,0,0
525,2.7347493,-1.0787922,-0.0038521197,0.008293883,-0.018576615,-0.022896262,0.187047,-0.0019452889,-0.23298575,0,0,0,0,0,0,0,0,0,0,0,0,0,0,0,0,0,0,0,0,0
526,2.7362552,-1.0782242,-0.002480795,-0.043904074,-0.01538082,-0.034614168,0.001496376,-0.024690205,-0.034267012,0,0,0,0,0,0,0,0,0,0,0,0,0,0,0,0,0,0,0,0,0
527,2.7380881,-1.0770214,-0.0014823212,-0.0162072,-0.047338754,-0.020765733,-0.065541275,-0.046088383,0.11327567,0,0,0,0,0,0,0,0,0,0,0,0,0,0,0,0,0,0,0,0,0
528,2.7385507,-1.0776845,-0.002629725,0.030664435,-0.060121927,-0.013308881,-0.011821371,7.48188E-4,-0.05701193,0,0,0,0,0,0,0,0,0,0,0,0,0,0,0,0,0,0,0,0,0
529,2.7396913,-1.07768,-0.0034363836,-0.019402992,-0.04201243,-0.0367447,0.14021043,0.041449618,0.042347442,0,0,0,0,0,0,0,0,0,0,0,0,0,0,0,0,0,0,0,0,0
530,2.7419772,-1.0775316,-0.0017560101,-0.008750348,-0.027098728,-0.041005757,-0.11043255,-0.044741645,-0.058358666,0,0,0,0,0,0,0,0,0,0,0,0,0,0,0,0,0,0,0,0,0
531,2.7431421,-1.077115,1.3831398E-4,-0.0012934973,0.015511848,-0.014374145,-0.023792379,-0.06180033,-1.496376E-4,0,0,0,0,0,0,0,0,0,0,0,0,0,0,0,0,0,0,0,0,0
532,2.743574,-1.0770353,9.485908E-4,0.011510715,-0.029167207,-0.011208179,-0.081103586,-0.062099606,0.05566519,0,0,0,0,0,0,0,0,0,0,0,0,0,0,0,0,0,0,0,0,0
533,2.7435389,-1.0776951,-2.5190949E-4,0.013641244,-0.015318769,0.005836051,0.0026934769,-0.033369187,-0.023343466,0,0,0,0,0,0,0,0,0,0,0,0,0,0,0,0,0,0,0,0,0
534,2.7431755,-1.0779094,5.7383743E-4,0.005119128,0.048597097,-0.0058818576,0.043394905,0.0055365916,-0.023642741,0,0,0,0,0,0,0,0,0,0,0,0,0,0,0,0,0,0,0,0,0
535,2.743595,-1.0781454,0.0022565406,0.021098094,0.012378106,-0.01866503,-0.039653964,-0.026485857,0.015113398,0,0,0,0,0,0,0,0,0,0,0,0,0,0,0,0,0,0,0,0,0
536,2.7440164,-1.0788105,0.0031973734,0.012575979,-0.0025355956,-0.013338708,-0.01690905,-0.034865562,-0.096216984,0,0,0,0,0,0,0,0,0,0,0,0,0,0,0,0,0,0,0,0,0
537,2.744233,-1.0789329,0.004247339,0.011510715,0.035813924,-0.0090776505,0.03875614,-0.035763387,0.0010474633,0,0,0,0,0,0,0,0,0,0,0,0,0,0,0,0,0,0,0,0,0
538,2.744091,-1.0796727,0.00564262,0.03494653,0.0304876,-0.0090776505,-0.022894554,-0.03232172,-0.056563016,0,0,0,0,0,0,0,0,0,0,0,0,0,0,0,0,0,0,0,0,0
539,2.744204,-1.0810997,0.0060689626,0.0083149215,-0.020645091,-0.0090776505,-0.004938041,0.0,-0.28281507,0,0,0,0,0,0,0,0,0,0,0,0,0,0,0,0,0,0,0,0,0
540,2.7447994,-1.0808426,0.006151374,-0.017251424,-0.016384033,-0.016534502,0.017657237,-0.021697452,-0.057161566,0,0,0,0,0,0,0,0,0,0,0,0,0,0,0,0,0,0,0,0,0
541,2.7456841,-1.0805409,0.007208697,0.0083149215,-0.0067966534,-0.012273444,-0.11088146,-0.07496844,0.05551555,0,0,0,0,0,0,0,0,0,0,0,0,0,0,0,0,0,0,0,0,0
542,2.7452507,-1.0814078,0.0075794365,0.0040538637,0.01344337,0.004770787,-0.040551793,-0.023792379,-0.14529811,0,0,0,0,0,0,0,0,0,0,0,0,0,0,0,0,0,0,0,0,0
543,2.7446988,-1.0812647,0.007370887,-0.01831669,6.6019763E-4,-0.0058818576,0.038456865,-0.033369187,-0.09023148,0,0,0,0,0,0,0,0,0,0,0,0,0,0,0,0,0,0,0,0,0
544,2.745158,-1.0805994,0.0077308454,-0.007664045,-0.012122976,-0.0090776505,-0.019003976,-0.08364742,0.009127894,0,0,0,0,0,0,0,0,0,0,0,0,0,0,0,0,0,0,0,0,0
545,2.7443762,-1.0809169,0.007370213,0.017902302,0.01344337,0.016488696,-0.00808043,-0.013916298,-0.04623802,0,0,0,0,0,0,0,0,0,0,0,0,0,0,0,0,0,0,0,0,0
546,2.7433796,-1.0811982,0.0071191755,-0.0034029873,0.01770443,0.005836051,0.04070143,0.0017956513,-0.086490534,0,0,0,0,0,0,0,0,0,0,0,0,0,0,0,0,0,0,0,0,0
547,2.7432938,-1.0810575,0.0066891024,-2.0719394E-4,-0.016384033,-0.0037513287,0.05865794,-0.044891283,-0.054168813,0,0,0,0,0,0,0,0,0,0,0,0,0,0,0,0,0,0,0,0,0
548,2.7436428,-1.0809584,0.00653187,0.0040538637,-4.050668E-4,-0.0058818576,0.0350152,-0.04249708,0.021398177,0,0,0,0,0,0,0,0,0,0,0,0,0,0,0,0,0,0,0,0,0
549,2.7432957,-1.0817033,0.0069372403,0.016837036,0.020900222,-5.555354E-4,0.029777884,0.030376434,-0.107739076,0,0,0,0,0,0,0,0,0,0,0,0,0,0,0,0,0,0,0,0,0
550,2.7433796,-1.0818927,0.00711558,-0.021512482,-0.009992447,-0.0090776505,0.061650693,0.008230069,-0.187047,0,0,0,0,0,0,0,0,0,0,0,0,0,0,0,0,0,0,0,0,0
551,2.7441964,-1.0810791,0.006600032,0.0019233349,-0.04940723,-0.004816593,-0.037708677,-0.03127426,0.06434417,0,0,0,0,0,0,0,0,0,0,0,0,0,0,0,0,0,0,0,0,0
552,2.743931,-1.0815402,0.005809282,0.013641244,-0.0046661245,0.0026402578,0.02558803,0.024540568,-0.089782566,0,0,0,0,0,0,0,0,0,0,0,0,0,0,0,0,0,0,0,0,0
553,2.743673,-1.0817121,0.0064430414,-0.012990367,0.029422337,-0.0037513287,0.026036944,-0.028880058,-0.15906477,0,0,0,0,0,0,0,0,0,0,0,0,0,0,0,0,0,0,0,0,0
554,2.7442076,-1.0812002,0.006731512,-0.009794574,-0.03768932,-0.012273444,-7.48188E-4,-0.047884032,-0.008529344,0,0,0,0,0,0,0,0,0,0,0,0,0,0,0,0,0,0,0,0,0
555,2.7447412,-1.0809999,0.0060155015,0.0029885992,-0.033428263,-0.006947122,-0.0055365916,-0.019153614,0.06569091,0,0,0,0,0,0,0,0,0,0,0,0,0,0,0,0,0,0,0,0,0
556,2.745011,-1.0812854,0.0065055443,8.580705E-4,0.02303075,0.0015749935,-0.063895255,0.0010474633,-0.05117606,0,0,0,0,0,0,0,0,0,0,0,0,0,0,0,0,0,0,0,0,0
557,2.744705,-1.0808938,0.0066740965,-0.012990367,0.004921255,0.0037055223,0.015861586,0.020350715,0.034865562,0,0,0,0,0,0,0,0,0,0,0,0,0,0,0,0,0,0,0,0,0
558,2.744977,-1.0809686,0.0060433894,0.02216336,-0.03768932,-0.012273444,-0.0016460137,-0.023792379,0.004638766,0,0,0,0,0,0,0,0,0,0,0,0,0,0,0,0,0,0,0,0,0
559,2.745433,-1.0814433,0.0059137857,0.0040538637,0.009182313,-0.0058818576,0.029478608,-0.026186582,-0.09711481,0,0,0,0,0,0,0,0,0,0,0,0,0,0,0,0,0,0,0,0,0
560,2.7461984,-1.0808188,0.007490103,-0.012990367,0.026226545,-0.006947122,-0.04129998,-0.08095395,0.03606266,0,0,0,0,0,0,0,0,0,0,0,0,0,0,0,0,0,0,0,0,0
561,2.7462723,-1.0808842,0.0076028826,0.024293888,-0.0067966534,0.00796658,-7.48188E-4,-0.01616086,0.062249243,0,0,0,0,0,0,0,0,0,0,0,0,0,0,0,0,0,0,0,0,0
562,2.7453804,-1.0822569,0.006282349,0.043468647,-0.02277562,0.005836051,0.077811554,0.034117375,-0.114173494,0,0,0,0,0,0,0,0,0,0,0,0,0,0,0,0,0,0,0,0,0
563,2.7453866,-1.0837045,0.0063383086,0.016837036,-4.050668E-4,-0.013338708,0.01316811,0.026934769,-0.2685995,0,0,0,0,0,0,0,0,0,0,0,0,0,0,0,0,0,0,0,0,0
564,2.7455835,-1.0836201,0.007143526,-0.016186161,0.018769693,-0.0016207998,-0.025139118,-0.042796355,-0.12764087,0,0,0,0,0,0,0,0,0,0,0,0,0,0,0,0,0,0,0,0,0
565,2.7454581,-1.0833099,0.00686127,-0.005571599,-0.0250188,-0.0036970002,0.011073183,-0.023792379,-0.056712653,0,0,0,0,0,0,0,0,0,0,0,0,0,0,0,0,0,0,0,0,0
566,2.745807,-1.0833001,0.006744118,-0.014093715,-0.001582983,-0.009023323,0.023493104,-0.0037409402,-0.14814124,0,0,0,0,0,0,0,0,0,0,0,0,0,0,0,0,0,0,0,0,0
567,2.7460754,-1.0824354,0.007517327,-0.018354772,0.021852834,-5.012069E-4,-0.0052373162,-0.048033673,0.045789108,0,0,0,0,0,0,0,0,0,0,0,0,0,0,0,0,0,0,0,0,0
568,2.745715,-1.0826966,0.0070771542,-0.0013105415,-0.015431421,-5.012069E-4,0.056114104,-0.032770637,-0.13781624,0,0,0,0,0,0,0,0,0,0,0,0,0,0,0,0,0,0,0,0,0
569,2.7463744,-1.0817312,0.0070126657,-0.03220321,-0.005844041,-0.01328438,0.064493805,-0.03875614,0.026186582,0,0,0,0,0,0,0,0,0,0,0,0,0,0,0,0,0,0,0,0,0
570,2.7472293,-1.0815138,0.0075822542,0.0061463094,0.003743339,-0.010088587,0.03232172,-0.015711948,-0.01810615,0,0,0,0,0,0,0,0,0,0,0,0,0,0,0,0,0,0,0,0,0
571,2.7476354,-1.0817487,0.0076582646,-0.011963186,0.0058738682,-0.0154149085,0.130484,0.058358666,-0.101454295,0,0,0,0,0,0,0,0,0,0,0,0,0,0,0,0,0,0,0,0,0
572,2.749745,-1.0807278,0.009101841,-0.031137945,-0.011170363,-0.044177048,0.058358666,0.00808043,0.09980828,0,0,0,0,0,0,0,0,0,0,0,0,0,0,0,0,0,0,0,0,0
573,2.7522395,-1.0800102,0.010869981,0.007211574,-0.0037135119,-0.029263347,-0.0062847794,-0.018255789,0.17522563,0,0,0,0,0,0,0,0,0,0,0,0,0,0,0,0,0,0,0,0,0
574,2.753597,-1.080826,0.011895775,0.033843186,5.475459E-4,-0.019675966,0.028580783,0.044292733,0.030376434,0,0,0,0,0,0,0,0,0,0,0,0,0,0,0,0,0,0,0,0,0
575,2.7554216,-1.0816001,0.013078291,0.023190541,-0.0122356275,-0.043111783,0.09292495,0.036661215,0.008978256,0,0,0,0,0,0,0,0,0,0,0,0,0,0,0,0,0,0,0,0,0
576,2.7584946,-1.0821463,0.016288906,0.019994747,0.012265455,-0.044177048,-0.087538,-0.07855974,-0.012120646,0,0,0,0,0,0,0,0,0,0,0,0,0,0,0,0,0,0,0,0,0
577,2.7604544,-1.0829574,0.018796125,0.034908447,0.004808604,-0.029263347,-0.07915829,-0.071377136,-0.05761048,0,0,0,0,0,0,0,0,0,0,0,0,0,0,0,0,0,0,0,0,0
578,2.7618744,-1.0843883,0.020508433,0.03277792,-0.019692479,-0.029263347,-0.10654198,-0.03441665,-0.17372926,0,0,0,0,0,0,0,0,0,0,0,0,0,0,0,0,0,0,0,0,0
579,2.7633417,-1.0851516,0.022408942,0.007211574,0.0016128103,-0.027132818,-0.117615156,-0.04444237,-0.1604115,0,0,0,0,0,0,0,0,0,0,0,0,0,0,0,0,0,0,0,0,0
580,2.7644496,-1.0853411,0.024556218,-0.002375806,0.02078757,-0.02500229,-0.08828619,0.009726444,-0.10235212,0,0,0,0,0,0,0,0,0,0,0,0,0,0,0,0,0,0,0,0,0
581,2.765758,-1.0853851,0.026922751,-0.002375806,0.0112001905,-0.020741232,-0.16130935,0.013317747,-0.10235212,0,0,0,0,0,0,0,0,0,0,0,0,0,0,0,0,0,0,0,0,0
582,2.7663383,-1.0848906,0.028636958,-0.03433374,0.03570127,5.640575E-4,-0.15622166,-0.06404489,-0.10414778,0,0,0,0,0,0,0,0,0,0,0,0,0,0,0,0,0,0,0,0,0
583,2.7660196,-1.0834239,0.029509295,-0.039660063,0.050614975,0.0026945863,-0.0017956513,-0.02813187,0.10295067,0,0,0,0,0,0,0,0,0,0,0,0,0,0,0,0,0,0,0,0,0
584,2.7660165,-1.0827487,0.030168334,0.018929483,0.0016128103,0.0101514375,-0.054767363,-0.0070329676,0.20231004,0,0,0,0,0,0,0,0,0,0,0,0,0,0,0,0,0,0,0,0,0
585,2.7649727,-1.084358,0.028490119,0.050887417,-0.022888271,0.016543023,0.038905777,-0.03187281,-0.13542204,0,0,0,0,0,0,0,0,0,0,0,0,0,0,0,0,0,0,0,0,0
586,2.7642581,-1.084823,0.028108982,-0.019420037,0.029309686,0.0037598507,0.047285482,-0.007930793,-0.122253925,0,0,0,0,0,0,0,0,0,0,0,0,0,0,0,0,0,0,0,0,0
587,2.763955,-1.0840266,0.028646791,-0.0034410704,0.018657042,0.011216702,-0.041000705,-0.025288755,0.11192893,0,0,0,0,0,0,0,0,0,0,0,0,0,0,0,0,0,0,0,0,0
588,2.7629125,-1.0848581,0.027662067,0.034908447,-0.005844041,0.017608289,-0.009576807,-0.069731124,-0.06344634,0,0,0,0,0,0,0,0,0,0,0,0,0,0,0,0,0,0,0,0,0
589,2.761423,-1.0858885,0.026203513,0.018929483,0.015461248,0.021869346,0.04504092,-0.08334815,-0.17133506,0,0,0,0,0,0,0,0,0,0,0,0,0,0,0,0,0,0,0,0,0
590,2.7599258,-1.0864469,0.025354777,-0.009832657,0.0229181,0.01547776,0.10010756,0.029179333,-0.2252046,0,0,0,0,0,0,0,0,0,0,0,0,0,0,0,0,0,0,0,0,0
591,2.7596538,-1.0858811,0.025334988,-0.019420037,-0.001582983,-0.0036970002,0.046387658,0.054917,0.0067336923,0,0,0,0,0,0,0,0,0,0,0,0,0,0,0,0,0,0,0,0,0
592,2.7598372,-1.0858618,0.02470469,0.009342102,-0.026084065,-5.012069E-4,0.029029695,0.002992752,-0.026785132,0,0,0,0,0,0,0,0,0,0,0,0,0,0,0,0,0,0,0,0,0
593,2.7598891,-1.0860705,0.02384483,-0.005571599,-0.010105099,-0.0047622644,0.060453594,0.014664485,-0.090979666,0,0,0,0,0,0,0,0,0,0,0,0,0,0,0,0,0,0,0,0,0
594,2.760551,-1.0854199,0.024576418,-0.017289508,0.02824442,-0.005827529,0.008978256,-0.00808043,0.046686932,0,0,0,0,0,0,0,0,0,0,0,0,0,0,0,0,0,0,0,0,0
595,2.7610786,-1.0853748,0.025534378,0.01360316,-0.00797457,-0.0068927933,-0.040851068,-0.037858315,0.046387658,0,0,0,0,0,0,0,0,0,0,0,0,0,0,0,0,0,0,0,0,0
596,2.7610927,-1.0861188,0.02445517,0.01573369,-0.037801974,0.001629322,0.011821371,-0.050727148,-0.1050456,0,0,0,0,0,0,0,0,0,0,0,0,0,0,0,0,0,0,0,0,0
597,2.7608676,-1.0860846,0.024146376,-0.0087673925,0.0229181,-5.012069E-4,0.031124622,-0.0362123,-0.056712653,0,0,0,0,0,0,0,0,0,0,0,0,0,0,0,0,0,0,0,0,0
598,2.7607598,-1.0859762,0.025067918,0.005081045,0.010134926,-0.0015664713,-0.033518825,-0.06015432,-0.023193829,0,0,0,0,0,0,0,0,0,0,0,0,0,0,0,0,0,0,0,0,0
599,2.7608252,-1.086394,0.025229858,0.0040328247,-0.011119762,-0.0015909724,-0.036511578,-0.046088383,-0.15412673,0,0,0,0,0,0,0,0,0,0,0,0,0,0,0,0,0,0,0,0,0
600,2.760421,-1.08675,0.02517122,0.0061633536,0.0027286748,0.0026700853,-0.061650693,-0.03007716,-0.13332711,0,0,0,0,0,0,0,0,0,0,0,0,0,0,0,0,0,0,0,0,0
601,2.7598436,-1.0866407,0.025361985,-0.019402992,0.01125079,0.01332273,-0.0815525,0.0067336923,-0.1352724,0,0,0,0,0,0,0,0,0,0,0,0,0,0,0,0,0,0,0,0,0
602,2.7589629,-1.0857695,0.024235843,-0.022598786,-0.01751135,0.0154532585,-0.028880058,-0.031573534,0.04189853,0,0,0,0,0,0,0,0,0,0,0,0,0,0,0,0,0,0,0,0,0
603,2.757969,-1.0855176,0.023087712,-0.013011406,0.0027286748,0.014387994,-0.034566287,-0.010324995,-0.06374562,0,0,0,0,0,0,0,0,0,0,0,0,0,0,0,0,0,0,0,0,0
604,2.756739,-1.0846212,0.022296937,-0.027925108,0.017642377,0.022910109,0.004189853,-0.037409402,-0.015412673,0,0,0,0,0,0,0,0,0,0,0,0,0,0,0,0,0,0,0,0,0
605,2.7557118,-1.0839553,0.021066397,-0.0066198194,-0.011119762,0.017583787,0.030526072,-0.0350152,0.07436989,0,0,0,0,0,0,0,0,0,0,0,0,0,0,0,0,0,0,0,0,0
606,2.754519,-1.0843388,0.01931012,0.009359147,0.0048592035,0.021844845,0.05192425,-0.038307227,-0.058807578,0,0,0,0,0,0,0,0,0,0,0,0,0,0,0,0,0,0,0,0,0
607,2.7536135,-1.0841691,0.019169023,-0.024729315,0.04640452,0.007996407,0.08200141,-0.042347442,-0.12539631,0,0,0,0,0,0,0,0,0,0,0,0,0,0,0,0,0,0,0,0,0
608,2.7533746,-1.0832901,0.019399654,-0.019402992,5.98146E-4,0.011192201,-0.019602526,-0.03696049,-0.02064999,0,0,0,0,0,0,0,0,0,0,0,0,0,0,0,0,0,0,0,0,0
609,2.7523472,-1.083374,0.018339954,-0.0012934973,5.98146E-4,0.022910109,-0.006434417,0.009726444,-0.07811083,0,0,0,0,0,0,0,0,0,0,0,0,0,0,0,0,0,0,0,0,0
610,2.7514067,-1.0832815,0.0174771,-0.020468257,-4.6711846E-4,0.01332273,0.012270284,-0.0035913025,-0.17118542,0,0,0,0,0,0,0,0,0,0,0,0,0,0,0,0,0,0,0,0,0
611,2.750855,-1.0823567,0.016172227,-0.034316696,-0.021772407,0.004800614,0.051325697,4.4891282E-4,-0.039205052,0,0,0,0,0,0,0,0,0,0,0,0,0,0,0,0,0,0,0,0,0
612,2.7509992,-1.0815628,0.015743937,-0.02366405,-0.007923969,0.006931143,-0.044592008,-0.09501988,-0.055964466,0,0,0,0,0,0,0,0,0,0,0,0,0,0,0,0,0,0,0,0,0
613,2.750221,-1.0806601,0.014768675,-0.02366405,0.0016634105,0.023975374,-0.024241293,-0.079457566,0.032621,0,0,0,0,0,0,0,0,0,0,0,0,0,0,0,0,0,0,0,0,0
614,2.7489738,-1.0798514,0.013427239,-0.032186165,0.010185526,0.02077958,0.051774614,0.0073322426,-1.496376E-4,0,0,0,0,0,0,0,0,0,0,0,0,0,0,0,0,0,0,0,0,0
615,2.7482457,-1.0794483,0.012754674,-0.004477839,-4.332963E-4,0.010110691,0.013916298,0.010923545,0.0026934769,0,0,0,0,0,0,0,0,0,0,0,0,0,0,0,0,0,0,0,0,0
616,2.747947,-1.0789837,0.012402763,-0.023652598,0.008088819,0.016502278,-0.03187281,-0.0020949265,0.0,0,0,0,0,0,0,0,0,0,0,0,0,0,0,0,0,0,0,0,0,0
617,2.747032,-1.0785743,0.011205352,-0.01193469,-4.332963E-4,0.018632807,0.06748656,-0.053570263,0.010773907,0,0,0,0,0,0,0,0,0,0,0,0,0,0,0,0,0,0,0,0,0
618,2.7461932,-1.0784065,0.0098057445,8.484831E-4,-4.332963E-4,0.014371749,0.12240356,-0.02813187,-0.02558803,0,0,0,0,0,0,0,0,0,0,0,0,0,0,0,0,0,0,0,0,0
619,2.7456758,-1.0786791,0.009119603,-0.008738897,-0.0068248827,0.004784369,0.05955577,0.013766659,-0.13691841,0,0,0,0,0,0,0,0,0,0,0,0,0,0,0,0,0,0,0,0,0
620,2.7462237,-1.077631,0.008010176,-0.041762095,-0.0451744,-0.007998805,0.07631518,-0.05327099,0.03187281,0,0,0,0,0,0,0,0,0,0,0,0,0,0,0,0,0,0,0,0,0
621,2.746627,-1.0764046,0.0065222774,-2.167813E-4,-0.02067332,0.013306485,0.08484452,-0.03232172,0.23223756,0,0,0,0,0,0,0,0,0,0,0,0,0,0,0,0,0,0,0,0,0
622,2.7462869,-1.077589,0.0057633403,0.027480094,0.021937257,-5.4195325E-4,0.1654992,-0.008828619,-0.17328034,0,0,0,0,0,0,0,0,0,0,0,0,0,0,0,0,0,0,0,0,0
623,2.7476256,-1.0774413,0.007313797,-0.01939154,0.0144804055,-0.029304093,0.062249243,-0.046537295,-0.06000468,0,0,0,0,0,0,0,0,0,0,0,0,0,0,0,0,0,0,0,0,0
624,2.750083,-1.0765469,0.009668777,-0.017261012,0.002762497,-0.025043035,-0.08619126,-0.07885902,0.08723872,0,0,0,0,0,0,0,0,0,0,0,0,0,0,0,0,0,0,0,0,0
625,2.7504644,-1.0768944,0.010338075,0.025349565,-0.0036290896,-5.4195325E-4,-0.020799628,0.010773907,0.011522096,0,0,0,0,0,0,0,0,0,0,0,0,0,0,0,0,0,0,0,0,0
626,2.7505317,-1.0776198,0.00982462,0.0019137475,-0.017477527,-0.0101293335,0.07152677,0.024690205,-0.12180501,0,0,0,0,0,0,0,0,0,0,0,0,0,0,0,0,0,0,0,0,0
627,2.7520254,-1.0769677,0.011487461,-0.012999955,0.019806728,-0.02823883,-0.018704701,-0.027383681,0.12360066,0,0,0,0,0,0,0,0,0,0,0,0,0,0,0,0,0,0,0,0,0
628,2.7529027,-1.0776423,0.013608552,0.044524323,0.028328843,-0.0037377465,-0.10250176,-0.06688801,-0.0068833297,0,0,0,0,0,0,0,0,0,0,0,0,0,0,0,0,0,0,0,0,0
629,2.7524984,-1.07912,0.013857751,0.020023244,-0.008955412,-0.002672482,0.022296004,-0.044891283,-0.24286184,0,0,0,0,0,0,0,0,0,0,0,0,0,0,0,0,0,0,0,0,0
630,2.7528071,-1.0791533,0.013299862,-0.00234731,-0.031325966,-0.002672482,0.03321955,-0.029029695,-0.0537199,0,0,0,0,0,0,0,0,0,0,0,0,0,0,0,0,0,0,0,0,0
631,2.752595,-1.0795356,0.012693622,0.011501128,0.01554567,-5.4195325E-4,0.09023148,0.010175358,-0.077213004,0,0,0,0,0,0,0,0,0,0,0,0,0,0,0,0,0,0,0,0,0
632,2.7528255,-1.0799725,0.013366397,0.013623933,-4.5566686E-4,-0.012248943,0.056712653,-0.01616086,-0.08439561,0,0,0,0,0,0,0,0,0,0,0,0,0,0,0,0,0,0,0,0,0
633,2.7534597,-1.0803831,0.01337983,-0.0034202978,-0.03773992,-0.014379472,0.001496376,-0.03815759,-0.16609775,0,0,0,0,0,0,0,0,0,0,0,0,0,0,0,0,0,0,0,0,0
634,2.7540603,-1.0803097,0.013343898,-0.004485562,-0.017499898,-0.015444736,0.012419921,-0.037110128,-0.08963293,0,0,0,0,0,0,0,0,0,0,0,0,0,0,0,0,0,0,0,0,0
635,2.7544694,-1.0801973,0.014114935,-0.00874662,0.012327506,-0.010118414,-0.012719196,0.020350715,-0.056114104,0,0,0,0,0,0,0,0,0,0,0,0,0,0,0,0,0,0,0,0,0
636,2.754864,-1.0802373,0.014934533,-0.0076813553,-0.015369369,-0.014379472,-0.041000705,0.004938041,-0.10444705,0,0,0,0,0,0,0,0,0,0,0,0,0,0,0,0,0,0,0,0,0
637,2.7551749,-1.0800413,0.014294894,-0.014072942,-0.039870452,-0.004792092,0.009277532,-0.02498948,-0.07212532,0,0,0,0,0,0,0,0,0,0,0,0,0,0,0,0,0,0,0,0,0
638,2.7553198,-1.0792475,0.0135072125,-0.022595057,-0.016434634,-0.004792092,0.042796355,-0.051325697,0.03441665,0,0,0,0,0,0,0,0,0,0,0,0,0,0,0,0,0,0,0,0,0
639,2.7555764,-1.0785955,0.013075944,-0.0023550333,-0.016434634,-0.012248943,0.062249243,-0.047135845,0.13302784,0,0,0,0,0,0,0,0,0,0,0,0,0,0,0,0,0,0,0,0,0
640,2.7563572,-1.0788157,0.013271759,0.006167082,-0.016434634,-0.019705795,0.040252518,0.0023942017,0.012868834,0,0,0,0,0,0,0,0,0,0,0,0,0,0,0,0,0,0,0,0,0
641,2.7573512,-1.0788175,0.013924664,0.022146048,0.001674862,-0.017575266,0.030226797,-0.0038905777,0.13916297,0,0,0,0,0,0,0,0,0,0,0,0,0,0,0,0,0,0,0,0,0
642,2.7581358,-1.0799515,0.015542773,0.028537635,0.018719092,-0.014379472,-0.054767363,-0.0338181,-0.08948329,0,0,0,0,0,0,0,0,0,0,0,0,0,0,0,0,0,0,0,0,0
643,2.7583942,-1.0806952,0.016772524,0.021080784,-0.01323884,-0.004792092,-0.097414084,0.023942016,-0.032172084,0,0,0,0,0,0,0,0,0,0,0,0,0,0,0,0,0,0,0,0,0
644,2.757522,-1.081959,0.015284265,0.022146048,-0.047327302,0.0037300233,0.027982233,0.020201078,-0.2264017,0,0,0,0,0,0,0,0,0,0,0,0,0,0,0,0,0,0,0,0,0
645,2.7579126,-1.0812328,0.014500195,-0.03537823,-0.016434634,-5.310343E-4,0.017208325,-0.06419453,-0.02064999,0,0,0,0,0,0,0,0,0,0,0,0,0,0,0,0,0,0,0,0,0
646,2.7580295,-1.0806055,0.012721833,0.0051018177,-0.063306265,0.0015994945,0.10100538,-0.09172785,0.12300211,0,0,0,0,0,0,0,0,0,0,0,0,0,0,0,0,0,0,0,0,0
647,2.7578216,-1.0812649,0.009708172,0.02001552,-0.05691468,0.0037300233,0.18166006,0.023343466,-0.05551555,0,0,0,0,0,0,0,0,0,0,0,0,0,0,0,0,0,0,0,0,0
648,2.7581325,-1.0815444,0.007916745,0.012558669,-0.031348336,-0.01651,0.24540567,0.07676409,0.051475335,0,0,0,0,0,0,0,0,0,0,0,0,0,0,0,0,0,0,0,0,0
649,2.7610152,-1.0816137,0.009491403,0.0051018177,-0.005781989,-0.05059846,0.05865794,0.07287352,0.09995792,0,0,0,0,0,0,0,0,0,0,0,0,0,0,0,0,0,0,0,0,0
650,2.7640824,-1.0823752,0.012387688,0.047712393,0.008066448,-0.037815288,-0.092176765,-0.0013467384,0.089184016,0,0,0,0,0,0,0,0,0,0,0,0,0,0,0,0,0,0,0,0,0
651,2.765973,-1.0842521,0.014419019,0.0445166,0.00593592,-0.031423703,-0.017058687,-0.03321955,-0.16355391,0,0,0,0,0,0,0,0,0,0,0,0,0,0,0,0,0,0,0,0,0
652,2.768507,-1.0848285,0.016644996,0.006167082,0.001674862,-0.04527214,0.020201078,-0.076015905,-0.07990648,0,0,0,0,0,0,0,0,0,0,0,0,0,0,0,0,0,0,0,0,0
653,2.7715259,-1.0851425,0.019271236,0.028537635,0.001674862,-0.03994582,-0.03247136,-0.121056825,0.045938745,0,0,0,0,0,0,0,0,0,0,0,0,0,0,0,0,0,0,0,0,0
654,2.7734213,-1.0868877,0.0218366,0.06262609,0.018719092,-0.031423703,-0.03247136,-0.015711948,-0.12644377,0,0,0,0,0,0,0,0,0,0,0,0,0,0,0,0,0,0,0,0,0
655,2.7749958,-1.0889581,0.024511188,0.038125016,0.014458035,-0.030358437,-0.056114104,0.008678981,-0.2896984,0,0,0,0,0,0,0,0,0,0,0,0,0,0,0,0,0,0,0,0,0
656,2.7767024,-1.0895699,0.026927078,0.0019060244,-0.005781989,-0.028227909,-0.112976395,-0.07032967,-0.19557635,0,0,0,0,0,0,0,0,0,0,0,0,0,0,0,0,0,0,0,0,0
657,2.7779675,-1.0898947,0.028418498,0.01042814,-0.027087277,-0.01651,-0.1539771,-0.087538,-0.17881694,0,0,0,0,0,0,0,0,0,0,0,0,0,0,0,0,0,0,0,0,0
658,2.7779765,-1.0904325,0.028561993,-0.013007677,-0.022826219,-0.0015962988,-0.13003507,-0.026485857,-0.24585459,0,0,0,0,0,0,0,0,0,0,0,0,0,0,0,0,0,0,0,0,0
659,2.777606,-1.0892273,0.028152753,-0.04496561,-0.012173575,0.002664759,-0.08334815,-0.030974984,-0.007182605,0,0,0,0,0,0,0,0,0,0,0,0,0,0,0,0,0,0,0,0,0
660,2.777216,-1.0881128,0.027259015,-0.021529794,-0.0324136,0.0015994945,-0.050128598,-0.037110128,0.06180033,0,0,0,0,0,0,0,0,0,0,0,0,0,0,0,0,0,0,0,0,0
661,2.7766237,-1.0873764,0.026052542,-0.015138206,-0.0025861957,0.014382668,0.0028431145,-0.065092355,0.10115502,0,0,0,0,0,0,0,0,0,0,0,0,0,0,0,0,0,0,0,0,0
662,2.7756758,-1.086663,0.02532421,-0.010877149,0.02298015,0.012252139,0.07227496,-0.027982233,0.15382746,0,0,0,0,0,0,0,0,0,0,0,0,0,0,0,0,0,0,0,0,0
663,2.7747555,-1.0866901,0.024914527,0.011493404,0.009131713,0.015447932,0.03007716,-0.001496376,0.074818805,0,0,0,0,0,0,0,0,0,0,0,0,0,0,0,0,0,0,0,0,0
664,2.773516,-1.0870368,0.023696966,0.011493404,0.019784357,0.018643726,0.13781624,0.042796355,0.011372458,0,0,0,0,0,0,0,0,0,0,0,0,0,0,0,0,0,0,0,0,0
665,2.7730958,-1.0878146,0.023279073,0.031721976,0.0027063042,-0.0037105824,0.119261175,5.985504E-4,0.024839843,0,0,0,0,0,0,0,0,0,0,0,0,0,0,0,0,0,0,0,0,0
666,2.7731032,-1.0888745,0.02357123,0.010416688,0.03253371,-0.009036904,0.14080898,0.0017956513,-0.16071078,0,0,0,0,0,0,0,0,0,0,0,0,0,0,0,0,0,0,0,0,0
667,2.7739267,-1.0888476,0.025272079,0.0082861595,0.022946328,-0.016493756,0.061052144,0.016460137,-0.029179333,0,0,0,0,0,0,0,0,0,0,0,0,0,0,0,0,0,0,0,0,0
668,2.7748017,-1.0901879,0.02589244,0.045570415,-0.03457795,-0.01755902,0.013018472,-0.05701193,-0.17298107,0,0,0,0,0,0,0,0,0,0,0,0,0,0,0,0,0,0,0,0,0
669,2.7755575,-1.09119,0.02604024,-0.0034317493,-0.00794634,-0.022885341,0.08963293,-0.036661215,-0.26874915,0,0,0,0,0,0,0,0,0,0,0,0,0,0,0,0,0,0,0,0,0
670,2.7774289,-1.0903834,0.027950104,-0.019410716,0.010163155,-0.030342193,2.992752E-4,-0.06359598,0.0023942017,0,0,0,0,0,0,0,0,0,0,0,0,0,0,0,0,0,0,0,0,0
671,2.778904,-1.0904444,0.029452452,0.022134596,-0.019664248,-0.020754812,-0.05117606,-0.044891283,0.044741645,0,0,0,0,0,0,0,0,0,0,0,0,0,0,0,0,0,0,0,0,0
672,2.779501,-1.0913255,0.030029641,0.007220895,-0.011142134,-0.00797164,-0.081103586,-0.0077811554,-0.19467853,0,0,0,0,0,0,0,0,0,0,0,0,0,0,0,0,0,0,0,0,0
673,2.77973,-1.0911204,0.030815113,-0.028998096,0.006967362,-0.012232698,-0.04938041,0.006135142,-0.15233108,0,0,0,0,0,0,0,0,0,0,0,0,0,0,0,0,0,0,0,0,0
674,2.7808576,-1.0895606,0.03207494,-0.03006336,-0.021794777,-0.015428491,-0.111779295,-0.096216984,0.13452421,0,0,0,0,0,0,0,0,0,0,0,0,0,0,0,0,0,0,0,0,0
675,2.7804394,-1.0895882,0.031186676,0.030656712,-0.03244742,0.01865997,-0.112976395,-0.056712653,0.07227496,0,0,0,0,0,0,0,0,0,0,0,0,0,0,0,0,0,0,0,0,0
676,2.7783215,-1.0907323,0.029021146,0.014677746,0.010163155,0.021855764,0.074220255,-0.008379706,-0.14185645,0,0,0,0,0,0,0,0,0,0,0,0,0,0,0,0,0,0,0,0,0
677,2.7778983,-1.0901717,0.029829841,-0.03965074,0.038925294,-0.004775847,-0.012120646,-0.004189853,-0.062099606,0,0,0,0,0,0,0,0,0,0,0,0,0,0,0,0,0,0,0,0,0
678,2.7779036,-1.0888824,0.03054788,0.0018945727,0.006967362,0.0048115333,-0.021098902,-0.05267244,0.21398178,0,0,0,0,0,0,0,0,0,0,0,0,0,0,0,0,0,0,0,0,0
679,2.7765768,-1.0902709,0.028852155,0.051962,-0.014337926,0.021855764,0.062698156,-0.016759412,-0.045789108,0,0,0,0,0,0,0,0,0,0,0,0,0,0,0,0,0,0,0,0,0
680,2.7750807,-1.0913796,0.027112678,0.007220895,0.017620007,0.008007326,0.19602527,0.025737667,-0.13497312,0,0,0,0,0,0,0,0,0,0,0,0,0,0,0,0,0,0,0,0,0
681,2.7750866,-1.0912164,0.028182905,-0.0066275424,0.027207386,-0.0058411113,0.026036944,0.0010474633,0.004938041,0,0,0,0,0,0,0,0,0,0,0,0,0,0,0,0,0,0,0,0,0
682,2.7746599,-1.0917183,0.028895801,0.013620204,0.019772906,0.007996407,-0.04818331,0.002244564,-0.14829087,0,0,0,0,0,0,0,0,0,0,0,0,0,0,0,0,0,0,0,0,0
683,2.774068,-1.0922995,0.028628929,0.0061633536,-0.020707143,5.3955644E-4,0.0032920274,-0.07032967,-0.18869302,0,0,0,0,0,0,0,0,0,0,0,0,0,0,0,0,0,0,0,0,0
684,2.7739296,-1.0920893,0.028443104,-0.022598786,0.0037939392,0.0026700853,-0.026635494,-0.14544775,-0.12943652,0,0,0,0,0,0,0,0,0,0,0,0,0,0,0,0,0,0,0,0,0
685,2.7729897,-1.0913353,0.028444938,-0.019402992,0.022968698,0.018649051,-0.044592008,-0.046088383,-0.012120646,0,0,0,0,0,0,0,0,0,0,0,0,0,0,0,0,0,0,0,0,0
686,2.7713804,-1.0915523,0.027397683,-0.009815613,0.0027286748,0.014387994,0.015113398,0.0068833297,-0.19093758,0,0,0,0,0,0,0,0,0,0,0,0,0,0,0,0,0,0,0,0,0
687,2.7710114,-1.090629,0.027030025,-0.042838812,-0.010054498,-5.25708E-4,0.0026934769,-0.021996727,-0.07811083,0,0,0,0,0,0,0,0,0,0,0,0,0,0,0,0,0,0,0,0,0
688,2.7706766,-1.0895401,0.026282193,-0.025794579,-0.011119762,0.012257465,-0.012868834,-0.09382278,-0.014664485,0,0,0,0,0,0,0,0,0,0,0,0,0,0,0,0,0,0,0,0,0
689,2.769385,-1.0886681,0.0251507,-0.025794579,0.017642377,0.022910109,0.011222821,-0.03815759,0.034865562,0,0,0,0,0,0,0,0,0,0,0,0,0,0,0,0,0,0,0,0,0
690,2.7680001,-1.0882629,0.024129227,-0.008750348,-0.006858705,0.018649051,0.011971008,5.985504E-4,0.021098902,0,0,0,0,0,0,0,0,0,0,0,0,0,0,0,0,0,0,0,0,0
691,2.767074,-1.0878255,0.02246827,-0.017272463,-0.02283767,0.017583787,0.029927522,-0.010175358,0.024690205,0,0,0,0,0,0,0,0,0,0,0,0,0,0,0,0,0,0,0,0,0
692,2.7657034,-1.0873836,0.020900529,-0.0066198194,0.0037939392,0.023975374,0.018555064,-0.0025438394,0.040551793,0,0,0,0,0,0,0,0,0,0,0,0,0,0,0,0,0,0,0,0,0
693,2.7643218,-1.0872889,0.019709313,-0.014076671,0.013381319,0.0154532585,0.09995792,0.020201078,-0.070778586,0,0,0,0,0,0,0,0,0,0,0,0,0,0,0,0,0,0,0,0,0
694,2.763769,-1.0865479,0.019042637,-0.018337728,-0.0015323829,0.009061672,0.060902506,-0.035314474,0.058209028,0,0,0,0,0,0,0,0,0,0,0,0,0,0,0,0,0,0,0,0,0
695,2.7632403,-1.0865098,0.018117225,0.010424411,-0.0089892335,0.006931143,0.07107786,-0.033668462,0.0058358666,0,0,0,0,0,0,0,0,0,0,0,0,0,0,0,0,0,0,0,0,0
696,2.7626798,-1.0865222,0.017988568,-0.007685084,0.026164493,0.009061672,0.02813187,-0.029927522,-0.011073183,0,0,0,0,0,0,0,0,0,0,0,0,0,0,0,0,0,0,0,0,0
697,2.7618084,-1.0865829,0.017667007,0.0061633536,0.013381319,0.011192201,0.0724246,-0.027533319,-0.018255789,0,0,0,0,0,0,0,0,0,0,0,0,0,0,0,0,0,0,0,0,0
698,2.7613058,-1.0868831,0.017415931,0.001902296,0.0048592035,-5.25708E-4,0.039055414,0.018255789,-0.07766192,0,0,0,0,0,0,0,0,0,0,0,0,0,0,0,0,0,0,0,0,0
699,2.7608912,-1.0872825,0.017628206,0.008286426,0.010163155,0.0016157398,0.021098902,-4.4891282E-4,-0.07751228,0,0,0,0,0,0,0,0,0,0,0,0,0,0,0,0,0,0,0,0,0
700,2.7606716,-1.0878297,0.017892664,-0.008757805,-0.0015547534,-0.0069063758,-0.0163105,0.011222821,-0.20964229,0,0,0,0,0,0,0,0,0,0,0,0,0,0,0,0,0,0,0,0,0
701,2.7606678,-1.0868196,0.01789784,-0.041781,0.004836833,0.0026810043,0.016011223,-0.053420626,-0.048033673,0,0,0,0,0,0,0,0,0,0,0,0,0,0,0,0,0,0,0,0,0
702,2.7607398,-1.0858539,0.017437711,-0.0076925405,-0.019664248,-0.0015800535,0.04249708,-0.036361936,0.124049574,0,0,0,0,0,0,0,0,0,0,0,0,0,0,0,0,0,0,0,0,0
703,2.7607572,-1.0862114,0.016870132,0.011482219,-0.016468456,0.0016157398,-0.014065935,0.015711948,-0.051624972,0,0,0,0,0,0,0,0,0,0,0,0,0,0,0,0,0,0,0,0,0
704,2.7605524,-1.086197,0.016580265,-0.013018863,0.0080326265,0.0016157398,0.04444237,-0.024839843,-0.049679685,0,0,0,0,0,0,0,0,0,0,0,0,0,0,0,0,0,0,0,0,0
705,2.760928,-1.0854491,0.017148096,-0.024736771,0.010163155,-0.011167433,0.03127426,-0.029628245,0.017357962,0,0,0,0,0,0,0,0,0,0,0,0,0,0,0,0,0,0,0,0,0
706,2.7616491,-1.0847957,0.01823516,-0.015149392,0.009097891,0.0016157398,-0.09561843,-0.070778586,0.019752163,0,0,0,0,0,0,0,0,0,0,0,0,0,0,0,0,0,0,0,0,0
707,2.760887,-1.0848083,0.017223654,0.015743276,-0.023925306,0.020790499,-0.009427169,-0.02184709,0.027383681,0,0,0,0,0,0,0,0,0,0,0,0,0,0,0,0,0,0,0,0,0
708,2.7597277,-1.0854564,0.015091602,0.0050906325,-0.012207397,0.0112031195,0.08439561,0.050427873,-0.0712275,0,0,0,0,0,0,0,0,0,0,0,0,0,0,0,0,0,0,0,0,0
709,2.7598758,-1.0849888,0.01536657,-0.0076925405,0.024011593,-0.012232698,0.089184016,-0.047734395,0.054468088,0,0,0,0,0,0,0,0,0,0,0,0,0,0,0,0,0,0,0,0,0
710,2.7606382,-1.0850463,0.016430344,0.017873805,-0.005815811,-0.009036904,0.004189853,-0.10758944,0.030825347,0,0,0,0,0,0,0,0,0,0,0,0,0,0,0,0,0,0,0,0,0
711,2.7607453,-1.0857518,0.016194098,0.013612748,0.0016410399,-5.14789E-4,0.05641338,-0.07646482,-0.14170681,0,0,0,0,0,0,0,0,0,0,0,0,0,0,0,0,0,0,0,0,0
712,2.7609603,-1.0856478,0.016151067,-0.005562012,-0.0036852823,-0.0037105824,0.08245032,-0.051026423,-0.0023942017,0,0,0,0,0,0,0,0,0,0,0,0,0,0,0,0,0,0,0,0,0
713,2.7615516,-1.0861492,0.015991302,0.02639592,-0.018598985,-0.0143632265,0.07167641,0.05551555,-0.033518825,0,0,0,0,0,0,0,0,0,0,0,0,0,0,0,0,0,0,0,0,0
714,2.7628179,-1.0872961,0.017295988,0.016808541,-0.0036852823,-0.027146399,-0.030825347,0.048033673,-0.19841947,0,0,0,0,0,0,0,0,0,0,0,0,0,0,0,0,0,0,0,0,0
715,2.7643635,-1.0874066,0.019308453,0.0018948391,-0.011142134,-0.020754812,-0.1237503,-0.06599019,-0.048482586,0,0,0,0,0,0,0,0,0,0,0,0,0,0,0,0,0,0,0,0,0
716,2.7646995,-1.0874785,0.019439366,0.0018948391,-0.03244742,0.0058767977,-0.1261445,-0.09950901,-0.040102877,0,0,0,0,0,0,0,0,0,0,0,0,0,0,0,0,0,0,0,0,0
717,2.7634177,-1.0873669,0.017101139,-0.0076925405,-0.033512685,0.020790499,0.014065935,-0.029478608,-0.022146367,0,0,0,0,0,0,0,0,0,0,0,0,0,0,0,0,0,0,0,0,0
718,2.7626143,-1.0870397,0.015551515,-0.014084128,-4.89489E-4,0.0026810043,0.09442133,-0.02124854,0.026036944,0,0,0,0,0,0,0,0,0,0,0,0,0,0,0,0,0,0,0,0,0
719,2.7629852,-1.0864944,0.015841838,0.004025368,0.0016410399,-0.002645318,0.0034416649,-0.040402155,0.16609775,0,0,0,0,0,0,0,0,0,0,0,0,0,0,0,0,0,0,0,0,0
720,2.7624385,-1.0874163,0.015146466,0.044505417,-0.0068810754,0.0112031195,0.06344634,0.0338181,0.054767363,0,0,0,0,0,0,0,0,0,0,0,0,0,0,0,0,0,0,0,0,0
721,2.761759,-1.0889466,0.014618364,0.017873805,0.012293684,-0.0015800535,0.08020575,0.014963761,-0.18719664,0,0,0,0,0,0,0,0,0,0,0,0,0,0,0,0,0,0,0,0,0
722,2.7622502,-1.0888561,0.015696904,-0.011953599,0.020815799,-0.009036904,0.0016460137,-0.021098902,-0.048033673,0,0,0,0,0,0,0,0,0,0,0,0,0,0,0,0,0,0,0,0,0
723,2.7624302,-1.0892428,0.015780095,0.013612748,-0.012207397,-0.0069063758,0.05192425,-0.0031423897,-0.0827496,0,0,0,0,0,0,0,0,0,0,0,0,0,0,0,0,0,0,0,0,0
724,2.7631388,-1.0894278,0.015983628,-0.010888334,-0.013272662,-0.010102169,0.02813187,-0.028880058,-0.10100538,0,0,0,0,0,0,0,0,0,0,0,0,0,0,0,0,0,0,0,0,0
725,2.7638004,-1.0893093,0.016290745,-0.005562012,-0.010076869,-0.0143632265,0.0053869537,-1.496376E-4,-0.05327099,0,0,0,0,0,0,0,0,0,0,0,0,0,0,0,0,0,0,0,0,0
726,2.7650952,-1.088571,0.01753225,-0.03432415,0.0080326265,-0.01755902,-0.04189853,-0.033668462,0.0010474633,0,0,0,0,0,0,0,0,0,0,0,0,0,0,0,0,0,0,0,0,0
727,2.7658267,-1.0876697,0.01765771,0.0029601036,-0.016468456,-5.14789E-4,-0.009576807,-0.051624972,0.197372,0,0,0,0,0,0,0,0,0,0,0,0,0,0,0,0,0,0,0,0,0
728,2.7660522,-1.0883063,0.017257325,0.016808541,-0.0015547534,-0.0069063758,0.046537295,0.015861586,-0.03067571,0,0,0,0,0,0,0,0,0,0,0,0,0,0,0,0,0,0,0,0,0
729,2.766908,-1.0887702,0.018857911,0.00935169,0.027207386,-0.013297962,-0.033518825,-0.03321955,-0.06569091,0,0,0,0,0,0,0,0,0,0,0,0,0,0,0,0,0,0,0,0,0
730,2.7674387,-1.0888765,0.019679768,0.0018948391,0.0016410399,-0.0015800535,-0.020799628,-0.082300685,-0.05117606,0,0,0,0,0,0,0,0,0,0,0,0,0,0,0,0,0,0,0,0,0
731,2.767459,-1.08877,0.018697016,0.011482219,-0.044165332,0.0048115333,-0.0052373162,-0.032022446,0.09367314,0,0,0,0,0,0,0,0,0,0,0,0,0,0,0,0,0,0,0,0,0
732,2.7669423,-1.0895061,0.017443968,0.011493671,0.0038053908,0.0037300233,0.028281508,0.050727148,-0.06599019,0,0,0,0,0,0,0,0,0,0,0,0,0,0,0,0,0,0,0,0,0
733,2.766968,-1.0893666,0.018309519,8.4102625E-4,0.042154912,-0.006922621,0.072574235,-0.0019452889,0.047734395,0,0,0,0,0,0,0,0,0,0,0,0,0,0,0,0,0,0,0,0,0
734,2.767348,-1.0902766,0.01853651,0.04451687,-0.040935714,-0.00905315,0.03546411,-0.043544542,-0.012719196,0,0,0,0,0,0,0,0,0,0,0,0,0,0,0,0,0,0,0,0,0
735,2.7674778,-1.0916619,0.017806908,0.016819993,-0.019630427,-0.007987886,0.02558803,-0.015711948,-0.18270752,0,0,0,0,0,0,0,0,0,0,0,0,0,0,0,0,0,0,0,0,0
736,2.7674172,-1.0920256,0.018687537,-0.00555056,0.025110679,-0.00905315,-0.026635494,0.017956512,-0.1714847,0,0,0,0,0,0,0,0,0,0,0,0,0,0,0,0,0,0,0,0,0
737,2.7680643,-1.0917422,0.02004865,-0.01513794,-0.0068472535,-0.01864053,-0.07092822,-0.037110128,-0.09247604,0,0,0,0,0,0,0,0,0,0,0,0,0,0,0,0,0,0,0,0,0
738,2.769063,-1.0915201,0.02093278,0.010428406,-0.019630427,-0.010118414,-0.13332711,-0.11566987,0.020350715,0,0,0,0,0,0,0,0,0,0,0,0,0,0,0,0,0,0,0,0,0
739,2.7689078,-1.0920628,0.02058742,0.011493671,6.0959754E-4,0.005860552,-0.037110128,-0.10070611,-0.08140286,0,0,0,0,0,0,0,0,0,0,0,0,0,0,0,0,0,0,0,0,0
740,2.7689877,-1.0916368,0.021300869,-0.01726847,0.05174229,0.0015994945,0.030526072,-0.07616554,0.039653964,0,0,0,0,0,0,0,0,0,0,0,0,0,0,0,0,0,0,0,0,0
741,2.7689834,-1.0919272,0.02235283,0.020015785,0.026175944,-5.310343E-4,-0.008978256,-0.042646717,-0.07167641,0,0,0,0,0,0,0,0,0,0,0,0,0,0,0,0,0,0,0,0,0
742,2.7685344,-1.0932395,0.02343782,0.009363142,0.021914886,-5.310343E-4,-0.06479308,0.016609775,-0.33952773,0,0,0,0,0,0,0,0,0,0,0,0,0,0,0,0,0,0,0,0,0
743,2.7676728,-1.0922723,0.02435596,-0.07159696,0.019784357,0.022904783,-0.15861586,0.02813187,-0.18450317,0,0,0,0,0,0,0,0,0,0,0,0,0,0,0,0,0,0,0,0,0
744,2.7655995,-1.0897589,0.021368096,-0.05348746,-0.07076312,0.03888375,-0.037708677,-0.03172317,0.16235681,0,0,0,0,0,0,0,0,0,0,0,0,0,0,0,0,0,0,0,0,0
745,2.7629862,-1.0889922,0.014916208,-0.008746354,-0.10485158,0.0463406,0.15622166,-0.002992752,0.1551742,0,0,0,0,0,0,0,0,0,0,0,0,0,0,0,0,0,0,0,0,0
746,2.7604501,-1.0880002,0.010360389,-0.04390008,-0.0047167246,0.033557426,0.2045546,0.06958149,0.17133506,0,0,0,0,0,0,0,0,0,0,0,0,0,0,0,0,0,0,0,0,0
747,2.7597902,-1.0865453,0.009698937,-0.010876883,0.024045415,-0.0015962988,0.14544775,0.070180036,0.32875383,0,0,0,0,0,0,0,0,0,0,0,0,0,0,0,0,0,0,0,0,0
748,2.7604308,-1.0873873,0.009529073,0.05516951,-0.023891484,-0.0058573564,0.015861586,-0.0052373162,0.13736732,0,0,0,0,0,0,0,0,0,0,0,0,0,0,0,0,0,0,0,0,0
749,2.7607145,-1.0886087,0.009604167,0.012557071,0.038953524,5.3689326E-4,0.06374562,-0.06748656,-0.13557167,0,0,0,0,0,0,0,0,0,0,0,0,0,0,0,0,0,0,0,0,0
750,2.760859,-1.0884196,0.010686069,0.017883392,0.036822997,-5.2837114E-4,0.075417355,-0.043544542,0.11148002,0,0,0,0,0,0,0,0,0,0,0,0,0,0,0,0,0,0,0,0,0
751,2.7611618,-1.0904329,0.010959509,0.06582029,-0.0057875817,-0.0069199577,0.042197805,0.021098902,-0.18929157,0,0,0,0,0,0,0,0,0,0,0,0,0,0,0,0,0,0,0,0,0
752,2.7616892,-1.0923927,0.011697181,0.016818129,0.016582971,-0.015442073,0.016759412,0.0010474633,-0.3378817,0,0,0,0,0,0,0,0,0,0,0,0,0,0,0,0,0,0,0,0,0
753,2.7627454,-1.0922598,0.012766678,-0.019400863,0.0016692694,-0.013311544,-0.008379706,-0.024091655,-0.15831658,0,0,0,0,0,0,0,0,0,0,0,0,0,0,0,0,0,0,0,0,0
754,2.764156,-1.0920426,0.013557057,-0.0076829535,-0.03135393,-0.022898924,-0.044741645,0.004040215,-0.08200141,0,0,0,0,0,0,0,0,0,0,0,0,0,0,0,0,0,0,0,0,0
755,2.7651186,-1.0921345,0.013603642,0.0019044265,-0.030288663,-0.009050487,-0.049679685,0.002244564,-0.056563016,0,0,0,0,0,0,0,0,0,0,0,0,0,0,0,0,0,0,0,0,0
756,2.7657132,-1.0918887,0.01353963,-0.030053506,-0.012179168,-0.0069199577,-0.044143096,-0.030226797,-0.121056825,0,0,0,0,0,0,0,0,0,0,0,0,0,0,0,0,0,0,0,0,0
757,2.766322,-1.0903789,0.013608322,-0.044967208,-0.012179168,-0.0026589,-0.048931498,-0.07691373,0.10280103,0,0,0,0,0,0,0,0,0,0,0,0,0,0,0,0,0,0,0,0,0
758,2.7666676,-1.0893929,0.012907912,-0.0023566312,-0.026027605,0.0069284798,-0.027832596,-0.048931498,0.20904374,0,0,0,0,0,0,0,0,0,0,0,0,0,0,0,0,0,0,0,0,0
759,2.766201,-1.0895765,0.0116524305,0.006165484,0.00912612,0.012254802,0.031423897,0.0011971008,0.041000705,0,0,0,0,0,0,0,0,0,0,0,0,0,0,0,0,0,0,0,0,0
760,2.7662275,-1.0895598,0.011941595,0.0019044265,0.03256194,-0.0026589,0.054617725,-0.023942016,0.027682956,0,0,0,0,0,0,0,0,0,0,0,0,0,0,0,0,0,0,0,0,0
761,2.7664933,-1.0900358,0.0126427105,0.021079186,0.021909293,-0.0037241643,0.06658874,-0.050278235,-0.08364742,0,0,0,0,0,0,0,0,0,0,0,0,0,0,0,0,0,0,0,0,0
762,2.766569,-1.0909218,0.013258098,0.017883392,0.021909293,-0.0058546932,0.05581483,0.006135142,-0.13796587,0,0,0,0,0,0,0,0,0,0,0,0,0,0,0,0,0,0,0,0,0
763,2.7668886,-1.0914636,0.013571827,-0.006617689,-0.015374961,-0.014376809,0.024839843,0.019752163,-0.19422962,0,0,0,0,0,0,0,0,0,0,0,0,0,0,0,0,0,0,0,0,0
764,2.76803,-1.0911129,0.013570977,-0.022596655,-0.022831813,-0.023964189,0.053869538,-0.021697452,-0.08499416,0,0,0,0,0,0,0,0,0,0,0,0,0,0,0,0,0,0,0,0,0
765,2.7694461,-1.0907644,0.014703846,-0.007694405,-0.009017197,-0.026078472,-0.034715924,-0.021697452,-0.051475335,0,0,0,0,0,0,0,0,0,0,0,0,0,0,0,0,0,0,0,0,0
766,2.770535,-1.0907029,0.015620736,-0.011955462,-0.020735105,-0.012230035,-0.0712275,-0.026635494,-0.08798691,0,0,0,0,0,0,0,0,0,0,0,0,0,0,0,0,0,0,0,0,0
767,2.7713325,-1.0900853,0.016204737,-0.011955462,-0.018604577,-0.009034242,-0.11492168,-0.051624972,-0.0017956513,0,0,0,0,0,0,0,0,0,0,0,0,0,0,0,0,0,0,0,0,0
768,2.7713702,-1.089825,0.016510922,-0.015151256,-0.015408783,0.010140519,-0.14634559,-0.055066638,-0.033369187,0,0,0,0,0,0,0,0,0,0,0,0,0,0,0,0,0,0,0,0,0
769,2.7705283,-1.088886,0.01569161,-0.03539128,-0.0015603461,0.015466841,-0.07691373,-0.033518825,0.015711948,0,0,0,0,0,0,0,0,0,0,0,0,0,0,0,0,0,0,0,0,0
770,2.7695622,-1.0879357,0.015203473,-0.01834705,0.011222827,0.01759737,-0.06868366,-0.056712653,0.07571663,0,0,0,0,0,0,0,0,0,0,0,0,0,0,0,0,0,0,0,0,0
771,2.7679162,-1.0875067,0.013873102,-0.007694405,0.013353356,0.029315278,0.015562311,-0.044741645,0.04997896,0,0,0,0,0,0,0,0,0,0,0,0,0,0,0,0,0,0,0,0,0
772,2.7664504,-1.0871544,0.012758047,-0.011955462,0.017614413,0.019727899,0.036511578,-0.010175358,-0.0010474633,0,0,0,0,0,0,0,0,0,0,0,0,0,0,0,0,0,0,0,0,0
773,2.7650983,-1.0871497,0.012154199,0.009349826,0.027201794,0.023988957,0.024540568,-0.044891283,-0.020201078,0,0,0,0,0,0,0,0,0,0,0,0,0,0,0,0,0,0,0,0,0
774,2.763489,-1.087525,0.01138656,-0.007694405,0.02187547,0.020793162,0.050427873,0.0032920274,-0.12389994,0,0,0,0,0,0,0,0,0,0,0,0,0,0,0,0,0,0,0,0,0
775,2.762023,-1.0874095,0.009850126,-0.008759669,-0.004756139,0.020793162,0.08215105,0.0026934769,-0.07631518,0,0,0,0,0,0,0,0,0,0,0,0,0,0,0,0,0,0,0,0,0
776,2.7611272,-1.0873156,0.008548539,-0.0098249335,-0.003690875,0.0069447253,0.10130466,0.04683657,-0.09382278,0,0,0,0,0,0,0,0,0,0,0,0,0,0,0,0,0,0,0,0,0
777,2.760904,-1.0867553,0.008123216,-0.013020727,-4.9508165E-4,0.009075254,0.036661215,-0.009427169,0.027084406,0,0,0,0,0,0,0,0,0,0,0,0,0,0,0,0,0,0,0,0,0
778,2.7604136,-1.0869924,0.0070948484,0.0029582393,-0.027126692,0.011205783,-0.025737667,-0.033967737,-0.11776479,0,0,0,0,0,0,0,0,0,0,0,0,0,0,0,0,0,0,0,0,0
779,2.759719,-1.0864094,0.005747385,-0.043913394,5.701828E-4,0.011205783,0.07227496,-0.037708677,-0.07466917,0,0,0,0,0,0,0,0,0,0,0,0,0,0,0,0,0,0,0,0,0
780,2.7599576,-1.0847131,0.00556148,-0.028999694,0.0048312405,-5.121259E-4,0.07212532,-0.060303956,0.17357962,0,0,0,0,0,0,0,0,0,0,0,0,0,0,0,0,0,0,0,0,0
781,2.7602901,-1.0846813,0.0048782993,0.014676148,-0.024996163,-0.0047731837,0.09367314,-0.0052373162,0.044292733,0,0,0,0,0,0,0,0,0,0,0,0,0,0,0,0,0,0,0,0,0
782,2.7611454,-1.0848714,0.005009806,-0.0098249335,-0.0026256104,-0.01116477,0.004040215,-0.032172084,-0.07047931,0,0,0,0,0,0,0,0,0,0,0,0,0,0,0,0,0,0,0,0,0
783,2.7614198,-1.0845413,0.004944897,-0.0023680828,0.01654915,5.5313855E-4,0.09636662,0.017806875,0.002992752,0,0,0,0,0,0,0,0,0,0,0,0,0,0,0,0,0,0,0,0,0
784,2.7621946,-1.0851078,0.0057134973,0.012545619,0.0016354473,-0.02075215,0.04369418,-0.01690905,-0.14185645,0,0,0,0,0,0,0,0,0,0,0,0,0,0,0,0,0,0,0,0,0
785,2.764102,-1.0849484,0.0076876455,-0.02367337,-0.0058214036,-0.027143737,-0.09711481,-0.050427873,-0.12644377,0,0,0,0,0,0,0,0,0,0,0,0,0,0,0,0,0,0,0,0,0
786,2.7649026,-1.0844243,0.008599159,-0.01621652,-0.007951933,5.5313855E-4,-0.12195465,-0.033668462,-0.06135142,0,0,0,0,0,0,0,0,0,0,0,0,0,0,0,0,0,0,0,0,0
787,2.7645211,-1.0839938,0.007884846,-0.0258039,-0.017539313,0.0069447253,-0.041150343,-0.035314474,-0.09756372,0,0,0,0,0,0,0,0,0,0,0,0,0,0,0,0,0,0,0,0,0
788,2.7641745,-1.0829997,0.006915872,-0.028999694,-0.010082462,0.005879461,0.0055365916,-0.049679685,0.03172317,0,0,0,0,0,0,0,0,0,0,0,0,0,0,0,0,0,0,0,0,0
789,2.7640598,-1.0821376,0.0064196736,-0.01834705,-0.019669842,0.010140519,-0.01616086,-0.07885902,0.07511808,0,0,0,0,0,0,0,0,0,0,0,0,0,0,0,0,0,0,0,0,0
790,2.763469,-1.0816544,0.004530927,-0.010890198,-0.022865634,0.010140519,0.057311203,-0.03127426,0.05701193,0,0,0,0,0,0,0,0,0,0,0,0,0,0,0,0,0,0,0,0,0
791,2.7636142,-1.0816026,0.004788065,-0.005563876,0.018679678,-0.007968977,-0.0163105,0.001496376,-0.030825347,0,0,0,0,0,0,0,0,0,0,0,0,0,0,0,0,0,0,0,0,0
